# Gaussian spectral response function from specification
# Band 3 => wavelength center = 646 nm / FWHM = 61 nm
545     0.000
546     0.001
547     0.001
548     0.001
549     0.001
550     0.001
551     0.001
552     0.001
553     0.002
554     0.002
555     0.002
556     0.002
557     0.003
558     0.003
559     0.004
560     0.004
561     0.005
562     0.005
563     0.006
564     0.007
565     0.008
566     0.008
567     0.010
568     0.011
569     0.012
570     0.014
571     0.015
572     0.017
573     0.019
574     0.021
575     0.023
576     0.026
577     0.029
578     0.032
579     0.035
580     0.039
581     0.043
582     0.047
583     0.052
584     0.057
585     0.063
586     0.068
587     0.075
588     0.082
589     0.089
590     0.097
591     0.105
592     0.114
593     0.123
594     0.133
595     0.144
596     0.155
597     0.167
598     0.180
599     0.193
600     0.207
601     0.221
602     0.236
603     0.252
604     0.269
605     0.286
606     0.304
607     0.322
608     0.341
609     0.361
610     0.381
611     0.401
612     0.423
613     0.444
614     0.466
615     0.489
616     0.511
617     0.534
618     0.558
619     0.581
620     0.604
621     0.628
622     0.651
623     0.674
624     0.697
625     0.720
626     0.742
627     0.764
628     0.786
629     0.806
630     0.826
631     0.846
632     0.864
633     0.882
634     0.898
635     0.914
636     0.928
637     0.941
638     0.953
639     0.964
640     0.974
641     0.982
642     0.988
643     0.993
644     0.997
645     0.999
646     1.000
647     0.999
648     0.997
649     0.993
650     0.988
651     0.982
652     0.974
653     0.964
654     0.953
655     0.941
656     0.928
657     0.914
658     0.898
659     0.882
660     0.864
661     0.846
662     0.826
663     0.806
664     0.786
665     0.764
666     0.742
667     0.720
668     0.697
669     0.674
670     0.651
671     0.628
672     0.604
673     0.581
674     0.558
675     0.534
676     0.511
677     0.489
678     0.466
679     0.444
680     0.423
681     0.401
682     0.381
683     0.361
684     0.341
685     0.322
686     0.304
687     0.286
688     0.269
689     0.252
690     0.236
691     0.221
692     0.207
693     0.193
694     0.180
695     0.167
696     0.155
697     0.144
698     0.133
699     0.123
700     0.114
701     0.105
702     0.097
703     0.089
704     0.082
705     0.075
706     0.068
707     0.063
708     0.057
709     0.052
710     0.047
711     0.043
712     0.039
713     0.035
714     0.032
715     0.029
716     0.026
717     0.023
718     0.021
719     0.019
720     0.017
721     0.015
722     0.014
723     0.012
724     0.011
725     0.010
726     0.008
727     0.008
728     0.007
729     0.006
730     0.005
731     0.005
732     0.004
733     0.004
734     0.003
735     0.003
736     0.002
737     0.002
738     0.002
739     0.002
740     0.001
741     0.001
742     0.001
743     0.001
744     0.001
745     0.001
746     0.001
747     0.000
