#
# Atlas plus modtran spectrum convolved with a triangular function
# with FWHM of 1 nm, and interpolated to 1 nm resolution.
#
280            85.0261626
281            172.201751
282            285.932436
283            330.048521
284            301.500922
285            157.277841
286            272.585021
287            368.623726
288            309.535583
289            421.625082
290            587.432744
291            610.571984
292            557.343757
293            549.563144
294            531.552021
295            540.083624
296            575.284647
297            483.180273
298            522.065258
299            513.782719
300            451.693896
301            495.811963
302            461.655273
303            653.690708
304            627.533851
305            654.002498
306            576.963368
307             636.24567
308            667.663054
309              585.9958
310            542.918752
311            783.413535
312            690.236081
313            716.043819
314            732.218375
315            698.152296
316            597.079537
317            796.338445
318            709.275842
319            720.423096
320            815.304027
321            756.254673
322            754.977247
323            670.366951
324            772.599557
325             835.57178
326            1008.94255
327            1004.52869
328            960.272017
329            1026.10063
330            1111.45211
331            997.479184
332            996.404035
333            967.260584
334            966.665967
335            1006.34966
336            865.833994
337            841.697015
338            929.915133
339            981.507828
340            1060.01033
341            965.176566
342            1006.45102
343            1050.36411
344              835.5589
345            947.104098
346            941.128018
347             987.77141
348             937.22637
349            914.164172
350            1048.55611
351            1038.79158
352            980.754818
353            1001.03655
354            1135.58392
355            1127.27982
356            1036.73677
357             850.39978
358            766.804088
359            877.206527
360            1111.09671
361            918.169582
362            964.972721
363            1062.51528
364            1084.43032
365            1080.92859
366            1318.95376
367            1260.15221
368             1165.2038
369             1218.0817
370            1279.80725
371            1189.97031
372            1106.90203
373            1038.06537
374            946.391939
375            981.247121
376             1139.2092
377            1209.05811
378            1435.39968
379            1195.10396
380            1146.97169
381            1253.87236
382            927.736013
383            746.957204
384            856.733452
385            1116.48506
386            1009.23718
387            1065.72802
388            1039.73316
389            1123.90033
390            1283.02928
391            1361.88296
392            1231.53525
393            684.122874
394            836.329018
395            1318.36057
396            1135.60419
397            712.950709
398            1408.12441
399            1639.90862
400            1700.07038
401            1746.11128
402            1811.28532
403            1727.16385
404            1771.05392
405            1739.66254
406            1663.59518
407            1650.86727
408            1733.98911
409            1827.90874
410            1549.51264
411            1794.70964
412            1857.00942
413            1778.21634
414            1824.56448
415             1780.1101
416            1856.69934
417            1768.12398
418            1735.53204
419            1765.33775
420            1642.21759
421            1830.51758
422            1819.27351
423            1667.70299
424            1641.78002
425            1649.71301
426            1735.45298
427            1616.92891
428             1608.3842
429            1486.59772
430            1238.60902
431            1121.58564
432            1747.39816
433            1763.85253
434            1702.09063
435            1787.57727
436            1977.75342
437            1957.75718
438            1737.09067
439            1622.16287
440             1730.3776
441            1808.97353
442            1929.55941
443            1893.19617
444            1894.95442
445            1866.94347
446            1782.34664
447            1973.34092
448            2057.96577
449            1988.88131
450            2068.75764
451            2187.38124
452            2051.23032
453            1856.89198
454            1948.21001
455            2035.07217
456             2057.4553
457            2120.92145
458            2023.25364
459            2042.23929
460            2042.14243
461            2045.60565
462            2019.37195
463            2017.39182
464            2016.64729
465             1974.3373
466            2006.00013
467            1965.60798
468            2027.26584
469            2027.19604
470            1979.68672
471            1966.11708
472            2039.02806
473             1994.0803
474            1981.24356
475            2057.47106
476            2052.39282
477            2045.26725
478            2104.82965
479            2011.16886
480            2051.92059
481            2026.85886
482             2073.3214
483            2043.34991
484            1978.52639
485            1934.50221
486            1722.06345
487            1716.57632
488            1886.69878
489            1850.44487
490            2033.11461
491            1935.48385
492            1815.06773
493            1941.31718
494            1929.54247
495            2077.76601
496            2000.19733
497            1983.42416
498            1876.12308
499            1909.87221
500            1908.69374
501            1869.08962
502            1824.29329
503            1926.01547
504            1915.18021
505            1945.96153
506            2032.18706
507            1942.50699
508            1849.65136
509            1967.80376
510            1957.17755
511            1945.34789
512            1977.67695
513             1876.4865
514            1843.67771
515            1824.79464
516            1921.13406
517            1626.67096
518            1697.72457
519            1678.98043
520            1838.87277
521            1884.11437
522            1924.94409
523            1835.35984
524            1942.60622
525             1947.4944
526            1829.36484
527             1716.6818
528             1907.6513
529            1936.12723
530            1935.41944
531            2015.03441
532            1921.41007
533            1713.43723
534            1783.37129
535            1877.56114
536            1967.66509
537            1895.70845
538            1949.10856
539            1911.68454
540            1788.59385
541            1769.44189
542             1878.5102
543            1898.96094
544            1918.77637
545            1926.12129
546            1853.35521
547             1887.2591
548            1840.16721
549             1863.3258
550            1871.30136
551            1868.77266
552            1909.06245
553            1842.24849
554            1883.76709
555            1897.35035
556            1866.98882
557            1836.11448
558             1848.7969
559            1810.35841
560            1829.48173
561            1869.97891
562            1794.60237
563            1881.51057
564            1859.72498
565            1866.66088
566            1760.38296
567            1823.34722
568            1868.28406
569            1841.93385
570            1842.77621
571            1802.03915
572            1857.25163
573            1896.37817
574            1877.36323
575            1848.04441
576             1863.0036
577            1869.06674
578            1835.53051
579            1797.33488
580            1834.86181
581            1840.56041
582            1875.31535
583            1869.22435
584            1855.48958
585            1837.31144
586            1783.93079
587             1818.0749
588            1818.26509
589            1711.45988
590            1736.37847
591            1806.09325
592            1784.69849
593            1776.57465
594            1801.76043
595            1791.14799
596             1791.8749
597            1811.22972
598            1784.80973
599            1767.69577
600            1776.04315
601            1734.50867
602            1727.84571
603            1735.29445
604            1787.74003
605            1793.65598
606            1776.22926
607            1759.30877
608            1770.52145
609            1756.04448
610            1727.07188
611            1726.52913
612            1746.32247
613            1714.11807
614            1695.79718
615            1699.97007
616            1645.49719
617            1619.31374
618            1715.09127
619            1732.78627
620            1718.51296
621            1743.41845
622            1713.78952
623            1693.76004
624            1653.28007
625            1649.28972
626             1634.7794
627            1685.47707
628            1692.89192
629            1713.87636
630            1679.51267
631            1663.70246
632            1629.51373
633             1664.6402
634            1639.63109
635            1661.89575
636            1633.67982
637            1656.34839
638            1677.26849
639            1646.41184
640            1603.46523
641            1612.15338
642            1636.01845
643            1637.25131
644            1609.60765
645            1605.84293
646            1610.36793
647            1603.74174
648            1612.21016
649            1591.35012
650            1567.40076
651            1603.60406
652            1600.92634
653            1602.95486
654            1592.52841
655            1562.17289
656            1383.04036
657            1418.28904
658            1541.23816
659            1548.49192
660            1544.24904
661            1577.60723
662            1578.32006
663            1570.55955
664            1554.00532
665            1549.89865
666            1542.56565
667            1530.01793
668            1558.34057
669            1553.88104
670            1541.70106
671            1531.33321
672            1511.36564
673            1517.27272
674            1525.65921
675            1519.04009
676            1516.35701
677            1510.89659
678            1504.36001
679             1501.6953
680            1495.95038
681             1487.1274
682             1486.7622
683            1481.84174
684            1482.79673
685            1473.61253
686            1443.30386
687             1471.6687
688            1469.01285
689            1460.03063
690            1468.91872
691            1452.90025
692            1439.78348
693            1439.93065
694            1440.64763
695            1437.50396
696            1434.11081
697            1432.67498
698            1416.34994
699             1423.9435
700            1412.27978
701            1400.26894
702            1396.04583
703            1402.04944
704            1407.67078
705            1417.53472
706            1406.19048
707            1380.33642
708            1400.75317
709            1393.94085
710            1398.95607
711            1390.63372
712             1376.7048
713            1363.92997
714            1377.55311
715            1357.95312
716            1354.28465
717             1376.7948
718             1352.5927
719            1321.47486
720            1338.58378
721             1356.6838
722             1334.6961
723            1339.23944
724            1361.38048
725            1353.71567
726            1352.69854
727            1347.90804
728            1328.56218
729            1304.81012
730            1322.32629
731            1310.93587
732            1321.80977
733            1314.09835
734            1327.61756
735            1323.10575
736            1307.43247
737             1312.6375
738            1303.50346
739            1286.68899
740            1287.04358
741            1272.37832
742            1259.10577
743            1285.61618
744            1293.39352
745            1275.88465
746            1277.62787
747            1285.12664
748            1281.25954
749            1259.94938
750            1255.26962
751            1274.63715
752            1268.36811
753            1259.67886
754            1271.65541
755            1268.91311
756            1255.02286
757            1248.65608
758            1237.75719
759            1232.33662
760            1247.88253
761            1236.90332
762            1209.23932
763            1230.13947
764            1249.57573
765            1228.80652
766            1191.36542
767            1181.57051
768            1214.84366
769            1217.31597
770            1210.36478
771            1199.09516
772            1186.36743
773            1193.54997
774            1204.42663
775            1171.42757
776            1188.14357
777             1196.4814
778            1190.02167
779            1197.50321
780            1184.72136
781            1181.21135
782            1189.98706
783            1179.55696
784            1169.46975
785            1182.51192
786            1174.76968
787            1177.32278
788            1180.05146
789            1176.48676
790            1172.53308
791            1164.83524
792              1157.645
793            1139.43566
794            1119.64176
795            1120.81011
796            1142.52793
797            1152.84213
798            1153.72883
799             1144.6598
800            1130.87696
