#
# Atlas plus modtran spectrum convolved with a triangular function
# with FWHM of 0.5 nm, and interpolated to 0.5 nm resolution.
#
  280            85.0261626
280.5            114.134979
  281            172.201751
281.5            237.178683
  282            285.932436
282.5            316.473438
  283            330.048521
283.5             325.45355
  284            301.500922
284.5            234.146008
  285            157.277841
285.5             174.39812
  286            272.585021
286.5            345.172362
  287            368.623726
287.5            342.733832
  288            309.535583
288.5             348.21604
  289            421.625082
289.5            501.715304
  290            587.432744
290.5            623.361051
  291            610.571984
291.5            590.735967
  292            557.343757
292.5            531.401052
  293            549.563144
293.5            553.806574
  294            531.552021
294.5            527.607433
  295            540.083624
295.5            573.467638
  296            575.284647
296.5            505.825099
  297            483.180273
297.5             541.11697
  298            522.065258
298.5            474.448426
  299            513.782719
299.5            508.934311
  300            451.693896
300.5            453.701889
  301            495.811963
301.5            487.970147
  302            461.655273
302.5            541.619991
  303            653.690708
303.5            663.819738
  304            627.533851
304.5            639.951785
  305            654.002498
305.5            614.457402
  306            576.963368
306.5            595.046042
  307             636.24567
307.5            655.902094
  308            667.663054
308.5            652.018746
  309              585.9958
309.5            518.777494
  310            542.918752
310.5            681.610766
  311            783.413535
311.5            751.180313
  312            690.236081
312.5             691.62041
  313            716.043819
313.5            743.968989
  314            732.218375
314.5            687.636536
  315            698.152296
315.5             662.01229
  316            597.079537
316.5              665.7886
  317            796.338445
317.5            805.380914
  318            709.275842
318.5            689.717736
  319            720.423096
319.5            739.886754
  320            815.304027
320.5             842.85623
  321            756.254673
321.5            722.614069
  322            754.977247
322.5            719.535544
  323            670.366951
323.5            700.907894
  324            772.599557
324.5            807.977491
  325             835.57178
325.5            929.422446
  326            1008.94255
326.5            1012.57906
  327            1004.52869
327.5            993.576456
  328            960.272017
328.5             955.54826
  329            1026.10063
329.5            1115.77423
  330            1111.45211
330.5            1034.42869
  331            997.479184
331.5            998.612852
  332            996.404035
332.5            986.585827
  333            967.260584
333.5            945.792794
  334            966.665967
334.5            998.530686
  335            1006.34966
335.5            960.105547
  336            865.833994
336.5            828.360934
  337            841.697015
337.5            883.111617
  338            929.915133
338.5            969.801962
  339            981.507828
339.5            1003.82613
  340            1060.01033
340.5            1038.96199
  341            965.176566
341.5            956.686786
  342            1006.45102
342.5            1037.52663
  343            1050.36411
343.5            980.672158
  344              835.5589
344.5            822.786652
  345            947.104098
345.5            983.943032
  346            941.128018
346.5            975.984834
  347             987.77141
347.5            931.481046
  348             937.22637
348.5             949.58801
  349            914.164172
349.5            940.012726
  350            1048.55611
350.5            1094.91497
  351            1038.79158
351.5             1009.7322
  352            980.754818
352.5            937.065134
  353            1001.03655
353.5            1095.23359
  354            1135.58392
354.5             1153.2301
  355            1127.27982
355.5             1081.5711
  356            1036.73677
356.5            928.756118
  357             850.39978
357.5            846.653263
  358            766.804088
358.5            724.902316
  359            877.206527
359.5            1074.59305
  360            1111.09671
360.5            989.428458
  361            918.169582
361.5            923.184022
  362            964.972721
362.5            1062.57704
  363            1062.51528
363.5            1042.77291
  364            1084.43032
364.5            1053.03976
  365            1080.92859
365.5             1235.2412
  366            1318.95376
366.5            1287.60079
  367            1260.15221
367.5            1232.50077
  368             1165.2038
368.5            1153.12667
  369             1218.0817
369.5            1297.12002
  370            1279.80725
370.5            1162.06651
  371            1189.97031
371.5            1230.61745
  372            1106.90203
372.5            1082.41603
  373            1038.06537
373.5            926.213626
  374            946.391939
374.5             931.09559
  375            981.247121
375.5            1134.34021
  376             1139.2092
376.5            1118.86833
  377            1209.05811
377.5            1350.58219
  378            1435.39968
378.5            1362.13704
  379            1195.10396
379.5            1094.84426
  380            1146.97169
380.5            1268.22469
  381            1253.87236
381.5            1087.81797
  382            927.736013
382.5            815.813373
  383            746.957204
383.5            737.890776
  384            856.733452
384.5            1051.60701
  385            1116.48506
385.5            1035.57961
  386            1009.23718
386.5             1063.0551
  387            1065.72802
387.5             1056.1711
  388            1039.73316
388.5            1030.86508
  389            1123.90033
389.5            1255.60168
  390            1283.02928
390.5            1279.58822
  391            1361.88296
391.5            1368.70822
  392            1231.53525
392.5            995.849584
  393            684.122874
393.5            592.895173
  394            836.329018
394.5            1129.85771
  395            1318.36057
395.5            1345.86367
  396            1135.60419
396.5            793.084792
  397            712.950709
397.5             1048.1768
  398            1408.12441
398.5             1567.5417
  399            1639.90862
399.5             1686.8676
  400            1700.07038
400.5            1702.09694
  401            1746.11128
401.5             1794.7186
  402            1811.28532
402.5             1785.9386
  403            1727.16385
403.5            1753.02834
  404            1771.05392
404.5            1719.80167
  405            1739.66254
405.5              1735.448
  406            1663.59518
406.5             1634.8047
  407            1650.86727
407.5             1676.4449
  408            1733.98911
408.5            1817.17207
  409            1827.90874
409.5            1679.23716
  410            1549.51264
410.5            1637.79934
  411            1794.70964
411.5            1865.58451
  412            1857.00942
412.5            1807.64906
  413            1778.21634
413.5            1809.16315
  414            1824.56448
414.5            1799.35191
  415             1780.1101
415.5            1794.69485
  416            1856.69934
416.5            1854.44075
  417            1768.12398
417.5            1727.73772
  418            1735.53204
418.5            1749.33913
  419            1765.33775
419.5            1707.12385
  420            1642.21759
420.5            1729.64916
  421            1830.51758
421.5            1838.04764
  422            1819.27351
422.5            1741.00365
  423            1667.70299
423.5            1640.05249
  424            1641.78002
424.5            1666.95253
  425            1649.71301
425.5            1673.12749
  426            1735.45298
426.5            1720.00731
  427            1616.92891
427.5            1543.24819
  428             1608.3842
428.5            1615.52505
  429            1486.59772
429.5            1372.60788
  430            1238.60902
430.5            1081.31858
  431            1121.58564
431.5            1486.85074
  432            1747.39816
432.5            1699.06459
  433            1763.85253
433.5            1827.18146
  434            1702.09063
434.5            1696.74066
  435            1787.57727
435.5            1856.07966
  436            1977.75342
436.5             2044.3328
  437            1957.75718
437.5            1856.24172
  438            1737.09067
438.5            1586.08776
  439            1622.16287
439.5            1742.15755
  440             1730.3776
440.5            1727.08429
  441            1808.97353
441.5             1881.5653
  442            1929.55941
442.5            1937.65216
  443            1893.19617
443.5            1876.81802
  444            1894.95442
444.5            1896.45664
  445            1866.94347
445.5            1789.93716
  446            1782.34664
446.5            1882.28092
  447            1973.34092
447.5            2040.18843
  448            2057.96577
448.5            2026.46842
  449            1988.88131
449.5            1979.79788
  450            2068.75764
450.5            2178.73564
  451            2187.38124
451.5             2127.2959
  452            2051.23032
452.5            1949.66461
  453            1856.89198
453.5            1862.43062
  454            1948.21001
454.5            2011.96133
  455            2035.07217
455.5            2048.96231
  456             2057.4553
456.5            2084.49153
  457            2120.92145
457.5            2104.27929
  458            2023.25364
458.5            1987.50122
  459            2042.23929
459.5            2068.68714
  460            2042.14243
460.5            2031.48945
  461            2045.60565
461.5            2039.88672
  462            2019.37195
462.5            2025.85882
  463            2017.39182
463.5            1992.61952
  464            2016.64729
464.5            2024.33732
  465             1974.3373
465.5            1980.16958
  466            2006.00013
466.5            1961.00546
  467            1965.60798
467.5            2033.00258
  468            2027.26584
468.5            1998.69339
  469            2027.19604
469.5            2035.81944
  470            1979.68672
470.5            1944.01704
  471            1966.11708
471.5            1998.43805
  472            2039.02806
472.5            2046.58096
  473             1994.0803
473.5            1962.63342
  474            1981.24356
474.5            2021.57569
  475            2057.47106
475.5             2068.5997
  476            2052.39282
476.5             2028.6937
  477            2045.26725
477.5             2094.0666
  478            2104.82965
478.5            2054.30228
  479            2011.16886
479.5             2030.2912
  480            2051.92059
480.5            2034.56421
  481            2026.85886
481.5            2052.02018
  482             2073.3214
482.5            2061.32854
  483            2043.34991
483.5            2023.70988
  484            1978.52639
484.5            1939.83642
  485            1934.50221
485.5             1883.4141
  486            1722.06345
486.5            1635.33824
  487            1716.57632
487.5            1813.47633
  488            1886.69878
488.5            1889.34308
  489            1850.44487
489.5            1924.48269
  490            2033.11461
490.5            2013.85911
  491            1935.48385
491.5            1878.20393
  492            1815.06773
492.5            1843.11831
  493            1941.31718
493.5            1941.83205
  494            1929.54247
494.5            2013.25007
  495            2077.76601
495.5            2045.90858
  496            2000.19733
496.5            1988.05572
  497            1983.42416
497.5            1963.02838
  498            1876.12308
498.5            1833.14878
  499            1909.87221
499.5             1943.0914
  500            1908.69374
500.5            1891.61682
  501            1869.08962
501.5            1826.74283
  502            1824.29329
502.5            1871.62895
  503            1926.01547
503.5            1939.17967
  504            1915.18021
504.5            1912.74344
  505            1945.96153
505.5            2006.28624
  506            2032.18706
506.5            1990.02182
  507            1942.50699
507.5            1895.57781
  508            1849.65136
508.5            1878.49612
  509            1967.80376
509.5            2002.12919
  510            1957.17755
510.5             1924.0925
  511            1945.34789
511.5            1983.81965
  512            1977.67695
512.5            1912.11015
  513             1876.4865
513.5            1881.03785
  514            1843.67771
514.5            1802.07188
  515            1824.79464
515.5            1891.30694
  516            1921.13406
516.5            1806.66056
  517            1626.67096
517.5            1618.77957
  518            1697.72457
518.5             1672.1363
  519            1678.98043
519.5            1771.84878
  520            1838.87277
520.5            1860.58904
  521            1884.11437
521.5            1917.92338
  522            1924.94409
522.5            1891.72085
  523            1835.35984
523.5            1853.16365
  524            1942.60622
524.5             1977.2937
  525             1947.4944
525.5             1902.6783
  526            1829.36484
526.5            1731.96461
  527             1716.6818
527.5            1824.56193
  528             1907.6513
528.5            1912.78966
  529            1936.12723
529.5            1950.91017
  530            1935.41944
530.5            1965.89354
  531            2015.03441
531.5            1997.50933
  532            1921.41007
532.5            1804.44624
  533            1713.43723
533.5            1736.52032
  534            1783.37129
534.5            1807.73938
  535            1877.56114
535.5            1958.28709
  536            1967.66509
536.5            1915.69788
  537            1895.70845
537.5            1929.21432
  538            1949.10856
538.5            1938.26317
  539            1911.68454
539.5            1857.73775
  540            1788.59385
540.5            1751.41835
  541            1769.44189
541.5             1821.7141
  542             1878.5102
542.5            1908.45241
  543            1898.96094
543.5             1898.6022
  544            1918.77637
544.5            1924.19851
  545            1926.12129
545.5            1899.56241
  546            1853.35521
546.5            1863.56194
  547             1887.2591
547.5            1861.41979
  548            1840.16721
548.5              1853.476
  549             1863.3258
549.5            1865.30708
  550            1871.30136
550.5             1869.0233
  551            1868.77266
551.5            1891.00149
  552            1909.06245
552.5              1884.538
  553            1842.24849
553.5            1841.67214
  554            1883.76709
554.5            1913.09658
  555            1897.35035
555.5            1870.80842
  556            1866.98882
556.5            1858.18113
  557            1836.11448
557.5            1838.00509
  558             1848.7969
558.5              1829.635
  559            1810.35841
559.5             1817.9249
  560            1829.48173
560.5            1851.71659
  561            1869.97891
561.5            1830.29699
  562            1794.60237
562.5            1834.19883
  563            1881.51057
563.5            1879.43303
  564            1859.72498
564.5            1862.52855
  565            1866.66088
565.5            1823.22608
  566            1760.38296
566.5            1759.95046
  567            1823.34722
567.5            1872.14984
  568            1868.28406
568.5            1844.95388
  569            1841.93385
569.5            1850.89422
  570            1842.77621
570.5             1819.6869
  571            1802.03915
571.5            1813.54914
  572            1857.25163
572.5             1894.3139
  573            1896.37817
573.5             1882.0004
  574            1877.36323
574.5            1871.31907
  575            1848.04441
575.5            1840.04795
  576             1863.0036
576.5            1876.94133
  577            1869.06674
577.5            1857.15694
  578            1835.53051
578.5            1804.78081
  579            1797.33488
579.5            1819.25655
  580            1834.86181
580.5            1833.41109
  581            1840.56041
581.5            1860.91912
  582            1875.31535
582.5            1877.12766
  583            1869.22435
583.5            1859.71595
  584            1855.48958
584.5            1850.84592
  585            1837.31144
585.5            1810.01495
  586            1783.93079
586.5            1788.84248
  587             1818.0749
587.5            1834.26645
  588            1818.26509
588.5            1772.60113
  589            1711.45988
589.5            1685.98893
  590            1736.37847
590.5            1800.13049
  591            1806.09325
591.5            1784.74643
  592            1784.69849
592.5            1787.65955
  593            1776.57465
593.5            1781.70973
  594            1801.76043
594.5            1804.43878
  595            1791.14799
595.5            1784.78497
  596             1791.8749
596.5            1803.48123
  597            1811.22972
597.5            1805.37471
  598            1784.80973
598.5             1767.1217
  599            1767.69577
599.5            1778.23242
  600            1776.04315
600.5            1754.47688
  601            1734.50867
601.5            1730.12079
  602            1727.84571
602.5            1724.04568
  603            1735.29445
603.5            1763.66084
  604            1787.74003
604.5            1794.53965
  605            1793.65598
605.5            1790.47735
  606            1776.22926
606.5            1756.88965
  607            1759.30877
607.5            1774.96941
  608            1770.52145
608.5            1756.88964
  609            1756.04448
609.5            1752.21235
  610            1727.07188
610.5            1708.38925
  611            1726.52913
611.5            1751.47074
  612            1746.32247
612.5            1724.00283
  613            1714.11807
613.5            1709.99883
  614            1695.79718
614.5            1691.25247
  615            1699.97007
615.5            1688.53021
  616            1645.49719
616.5            1608.76189
  617            1619.31374
617.5            1667.43457
  618            1715.09127
618.5            1737.73315
  619            1732.78627
619.5            1718.67005
  620            1718.51296
620.5            1734.74729
  621            1743.41845
621.5            1728.39802
  622            1713.78952
622.5             1711.3765
  623            1693.76004
623.5            1664.62488
  624            1653.28007
624.5            1656.32207
  625            1649.28972
625.5            1631.94602
  626             1634.7794
626.5            1662.80857
  627            1685.47707
627.5            1690.63889
  628            1692.89192
628.5            1703.82634
  629            1713.87636
629.5            1705.37913
  630            1679.51267
630.5            1662.58987
  631            1663.70246
631.5            1650.52394
  632            1629.51373
632.5            1643.47266
  633             1664.6402
633.5            1653.17596
  634            1639.63109
634.5            1649.42892
  635            1661.89575
635.5            1653.23449
  636            1633.67982
636.5            1634.01896
  637            1656.34839
637.5            1676.10852
  638            1677.26849
638.5            1663.87762
  639            1646.41184
639.5            1624.61257
  640            1603.46523
640.5            1599.88093
  641            1612.15338
641.5             1624.7506
  642            1636.01845
642.5            1643.76331
  643            1637.25131
643.5            1621.05536
  644            1609.60765
644.5             1605.4478
  645            1605.84293
645.5            1609.62591
  646            1610.36793
646.5            1605.13944
  647            1603.74174
647.5            1609.66347
  648            1612.21016
648.5            1605.29851
  649            1591.35012
649.5            1574.53224
  650            1567.40076
650.5            1582.58681
  651            1603.60406
651.5            1606.29821
  652            1600.92634
652.5            1602.66944
  653            1602.95486
653.5            1597.07574
  654            1592.52841
654.5            1589.02609
  655            1562.17289
655.5             1480.4445
  656            1383.04036
656.5             1360.2912
  657            1418.28904
657.5            1490.99546
  658            1541.23816
658.5            1560.46521
  659            1548.49192
659.5            1532.22368
  660            1544.24904
660.5            1569.73658
  661            1577.60723
661.5            1575.60163
  662            1578.32006
662.5            1578.21069
  663            1570.55955
663.5            1561.61795
  664            1554.00532
664.5            1548.41969
  665            1549.89865
665.5            1553.39197
  666            1542.56565
666.5             1525.6728
  667            1530.01793
667.5            1549.63728
  668            1558.34057
668.5            1556.05676
  669            1553.88104
669.5            1549.64605
  670            1541.70106
670.5            1535.95736
  671            1531.33321
671.5             1521.4921
  672            1511.36564
672.5            1510.48572
  673            1517.27272
673.5            1523.95538
  674            1525.65921
674.5            1522.63948
  675            1519.04009
675.5            1517.30122
  676            1516.35701
676.5             1514.4437
  677            1510.89659
677.5            1506.99235
  678            1504.36001
678.5            1502.94987
  679             1501.6953
679.5            1499.56566
  680            1495.95038
680.5              1491.126
  681             1487.1274
681.5            1486.24209
  682             1486.7622
682.5            1485.04792
  683            1481.84174
683.5            1480.62861
  684            1482.79673
684.5            1484.00939
  685            1473.61253
685.5            1452.68951
  686            1443.30386
686.5            1455.53618
  687             1471.6687
687.5            1475.90257
  688            1469.01285
688.5            1460.48324
  689            1460.03063
689.5            1466.15064
  690            1468.91872
690.5            1463.64908
  691            1452.90025
691.5             1443.2283
  692            1439.78348
692.5              1440.182
  693            1439.93065
693.5            1439.62882
  694            1440.64763
694.5            1440.48713
  695            1437.50396
695.5            1434.57194
  696            1434.11081
696.5            1434.63043
  697            1432.67498
697.5            1425.28222
  698            1416.34994
698.5            1416.29705
  699             1423.9435
699.5             1423.8248
  700            1412.27978
700.5            1402.54039
  701            1400.26894
701.5            1398.76435
  702            1396.04583
702.5            1397.11395
  703            1402.04944
703.5            1405.64737
  704            1407.67078
704.5            1412.25809
  705            1417.53472
705.5            1416.44634
  706            1406.19048
706.5            1390.53708
  707            1380.33642
707.5            1386.51245
  708            1400.75317
708.5             1402.8755
  709            1393.94085
709.5            1392.22614
  710            1398.95607
710.5            1399.41277
  711            1390.63372
711.5            1382.13527
  712             1376.7048
712.5             1369.7053
  713            1363.92997
713.5            1368.23376
  714            1377.55311
714.5            1374.31694
  715            1357.95312
715.5            1348.06566
  716            1354.28465
716.5            1367.93954
  717             1376.7948
717.5            1371.60569
  718             1352.5927
718.5            1332.03257
  719            1321.47486
719.5            1324.72648
  720            1338.58378
720.5            1352.44892
  721             1356.6838
721.5            1349.07149
  722             1334.6961
722.5            1328.07683
  723            1339.23944
723.5            1356.04191
  724            1361.38048
724.5            1357.02678
  725            1353.71567
725.5            1353.54279
  726            1352.69854
726.5            1350.34771
  727            1347.90804
727.5            1342.53993
  728            1328.56218
728.5            1310.64931
  729            1304.81012
729.5            1314.61402
  730            1322.32629
730.5            1317.01994
  731            1310.93587
731.5            1315.41917
  732            1321.80977
732.5              1319.179
  733            1314.09835
733.5            1318.17303
  734            1327.61756
734.5            1330.09331
  735            1323.10575
735.5            1313.52396
  736            1307.43247
736.5            1307.83909
  737             1312.6375
737.5            1312.86908
  738            1303.50346
738.5            1291.91929
  739            1286.68899
739.5            1286.84211
  740            1287.04358
740.5            1282.96003
  741            1272.37832
741.5            1260.61332
  742            1259.10577
742.5            1270.78071
  743            1285.61618
743.5            1294.05454
  744            1293.39352
744.5            1285.06888
  745            1275.88465
745.5            1273.49446
  746            1277.62787
746.5            1282.62287
  747            1285.12664
747.5            1284.82577
  748            1281.25954
748.5            1272.67609
  749            1259.94938
749.5            1251.45166
  750            1255.26962
750.5            1266.83432
  751            1274.63715
751.5            1274.16017
  752            1268.36811
752.5            1261.76409
  753            1259.67886
753.5            1264.72838
  754            1271.65541
754.5            1273.32013
  755            1268.91311
755.5            1261.83333
  756            1255.02286
756.5            1250.59502
  757            1248.65608
757.5            1245.33535
  758            1237.75719
758.5            1230.89144
  759            1232.33662
759.5            1240.97679
  760            1247.88253
760.5            1246.83663
  761            1236.90332
761.5            1220.89552
  762            1209.23932
762.5            1213.32324
  763            1230.13947
763.5            1245.25604
  764            1249.57573
764.5            1243.19597
  765            1228.80652
765.5            1209.99039
  766            1191.36542
766.5            1179.31775
  767            1181.57051
767.5            1197.87691
  768            1214.84366
768.5            1220.54278
  769            1217.31597
769.5            1213.18019
  770            1210.36478
770.5            1206.11118
  771            1199.09516
771.5             1191.5459
  772            1186.36743
772.5            1186.29007
  773            1193.54997
773.5            1203.94059
  774            1204.42663
774.5            1188.61398
  775            1171.42757
775.5            1172.16352
  776            1188.14357
776.5            1199.50799
  777             1196.4814
777.5            1189.40975
  778            1190.02167
778.5            1195.86935
  779            1197.50321
779.5            1192.00996
  780            1184.72136
780.5            1180.77551
  781            1181.21135
781.5            1185.31382
  782            1189.98706
782.5            1188.90926
  783            1179.55696
783.5            1169.81542
  784            1169.46975
784.5            1177.16536
  785            1182.51192
785.5            1179.94497
  786            1174.76968
786.5            1173.93852
  787            1177.32278
787.5            1180.22257
  788            1180.05146
788.5            1178.17482
  789            1176.48676
789.5            1174.96773
  790            1172.53308
790.5            1168.81278
  791            1164.83524
791.5            1161.52536
  792              1157.645
792.5            1150.45764
  793            1139.43566
793.5            1127.88483
  794            1119.64176
794.5            1116.80937
  795            1120.81011
795.5            1131.01211
  796            1142.52793
796.5            1150.03694
  797            1152.84213
797.5            1153.59478
  798            1153.72883
798.5            1151.46683
  799             1144.6598
799.5            1136.55012
  800            1130.87696
