# extracted from http://envisat.esa.int/handbooks/aatsr/aux-files/consolidatedsrfs.xls
# AATSR Flight Model FPA #2 0.555um channel (AuSpace measuremets).
# Wavelength Response
525.153000 0.00027
525.414000 0.00077
525.675000 0.00127
525.936000 0.00134
526.197000 0.00000
526.458000 0.00033
526.719000 0.00071
526.980000 0.00166
527.241000 0.00125
527.502000 0.00114
527.763000 0.00178
528.024000 0.00020
528.285000 0.00189
528.546000 0.00330
528.807000 0.00203
529.068000 0.00239
529.329000 0.00225
529.590000 0.00012
529.851000 0.00100
530.112000 0.00135
530.373000 0.00155
530.634000 0.00159
530.895000 0.00091
531.156000 0.00166
531.417000 0.00194
531.678000 0.00191
531.939000 0.00341
532.200000 0.00320
532.461000 0.00100
532.722000 0.00161
532.983000 0.00225
533.244000 0.00120
533.505000 0.00241
533.766000 0.00360
534.027000 0.00181
534.288000 0.00148
534.549000 0.00331
534.810000 0.00371
535.071000 0.00373
535.332000 0.00477
535.593000 0.00458
535.854000 0.00438
536.115000 0.00439
536.376000 0.00494
536.637000 0.00521
536.898000 0.00599
537.159000 0.00514
537.420000 0.00463
537.681000 0.00567
537.942000 0.00679
538.203000 0.00683
538.464000 0.00829
538.725000 0.00962
538.986000 0.00911
539.247000 0.00942
539.508000 0.01225
539.769000 0.01361
540.030000 0.01316
540.291000 0.01434
540.552000 0.01594
540.813000 0.01635
541.074000 0.01758
541.335000 0.02098
541.596000 0.02345
541.857000 0.02410
542.118000 0.02673
542.379000 0.03076
542.640000 0.03349
542.901000 0.03692
543.162000 0.04141
543.423000 0.04499
543.684000 0.04916
543.945000 0.05386
544.206000 0.06020
544.467000 0.06687
544.728000 0.07400
544.989000 0.08153
545.250000 0.08994
545.511000 0.10027
545.772000 0.11301
546.033000 0.12712
546.294000 0.14243
546.555000 0.16016
546.816000 0.18023
547.077000 0.20268
547.338000 0.23190
547.599000 0.26305
547.860000 0.29721
548.121000 0.33444
548.382000 0.37909
548.643000 0.42754
548.904000 0.47697
549.165000 0.52908
549.426000 0.58340
549.687000 0.63540
549.948000 0.68747
550.209000 0.73690
550.470000 0.78172
550.731000 0.81861
550.992000 0.85444
551.253000 0.88530
551.514000 0.91334
551.775000 0.93266
552.036000 0.94969
552.297000 0.96402
552.558000 0.97408
552.819000 0.98221
553.080000 0.98791
553.341000 0.99152
553.602000 0.99348
553.863000 0.99524
554.124000 0.99600
554.385000 0.99558
554.646000 0.99869
554.907000 1.00000
555.168000 0.99933
555.429000 0.99757
555.690000 0.99813
555.951000 0.99840
556.212000 0.99760
556.473000 0.99568
556.734000 0.99318
556.995000 0.99080
557.256000 0.98920
557.517000 0.98611
557.778000 0.98338
558.039000 0.97729
558.300000 0.97382
558.561000 0.96876
558.822000 0.96119
559.083000 0.95394
559.344000 0.94531
559.605000 0.93768
559.866000 0.92832
560.127000 0.91625
560.388000 0.90409
560.649000 0.89134
560.910000 0.87716
561.171000 0.86452
561.432000 0.84868
561.693000 0.83258
561.954000 0.81575
562.215000 0.80201
562.476000 0.78467
562.737000 0.77092
562.998000 0.75492
563.259000 0.74051
563.520000 0.72423
563.781000 0.71434
564.042000 0.69738
564.303000 0.68244
564.564000 0.66847
564.825000 0.65515
565.086000 0.64175
565.347000 0.62748
565.608000 0.61681
565.869000 0.60772
566.130000 0.59615
566.391000 0.58508
566.652000 0.57629
566.913000 0.56844
567.174000 0.56117
567.435000 0.55350
567.696000 0.54590
567.957000 0.54002
568.218000 0.53493
568.479000 0.53102
568.740000 0.52606
569.001000 0.52157
569.262000 0.51677
569.523000 0.51191
569.784000 0.50660
570.045000 0.50139
570.306000 0.49608
570.567000 0.48969
570.828000 0.48316
571.089000 0.47587
571.350000 0.46756
571.611000 0.45783
571.872000 0.44391
572.133000 0.43223
572.394000 0.41863
572.655000 0.40284
572.916000 0.38479
573.177000 0.36790
573.438000 0.35028
573.699000 0.32990
573.960000 0.30917
574.221000 0.29001
574.482000 0.26999
574.743000 0.25048
575.004000 0.23221
575.265000 0.21434
575.526000 0.19870
575.787000 0.18446
576.048000 0.17049
576.309000 0.15626
576.570000 0.14414
576.831000 0.13386
577.092000 0.12275
577.353000 0.11217
577.614000 0.10372
577.875000 0.09572
578.136000 0.08770
578.397000 0.08146
578.658000 0.07565
578.919000 0.07040
579.180000 0.06567
579.441000 0.06198
579.702000 0.05732
579.963000 0.05321
580.224000 0.04966
580.485000 0.04624
580.746000 0.04223
581.007000 0.03974
581.268000 0.03741
581.529000 0.03439
581.790000 0.03231
582.051000 0.03115
582.312000 0.02940
582.573000 0.02702
582.834000 0.02556
583.095000 0.02468
583.356000 0.02279
583.617000 0.02058
583.878000 0.01963
584.139000 0.01894
584.400000 0.01742
584.661000 0.01677
584.922000 0.01549
585.183000 0.01476
585.444000 0.01495
585.705000 0.01498
585.966000 0.01324
586.227000 0.01207
586.488000 0.01240
586.749000 0.01217
587.010000 0.01039
587.271000 0.00970
587.532000 0.00970
587.793000 0.00892
588.054000 0.00800
588.315000 0.00836
588.576000 0.00807
588.837000 0.00669
589.098000 0.00644
589.359000 0.00708
589.620000 0.00680
589.881000 0.00567
590.142000 0.00507
590.403000 0.00496
590.664000 0.00500
590.925000 0.00508
591.186000 0.00476
591.447000 0.00404
