# extracted from http://envisat.esa.int/handbooks/aatsr/aux-files/consolidatedsrfs.xls
# AATSR Flight Model FPA #2 0.87um channel (AuSpace measuremets).
# Wavelength Response
834.274000 0.00092
834.533000 0.00097
834.792000 0.00101
835.052000 0.00103
835.311000 0.00111
835.570000 0.00125
835.830000 0.00134
836.089000 0.00149
836.348000 0.00153
836.608000 0.00164
836.867000 0.00166
837.126000 0.00182
837.386000 0.00205
837.645000 0.00208
837.905000 0.00219
838.164000 0.00235
838.423000 0.00244
838.683000 0.00279
838.942000 0.00300
839.201000 0.00319
839.461000 0.00335
839.720000 0.00350
839.979000 0.00380
840.239000 0.00423
840.498000 0.00458
840.757000 0.00488
841.017000 0.00527
841.276000 0.00563
841.535000 0.00611
841.795000 0.00661
842.054000 0.00729
842.313000 0.00780
842.573000 0.00844
842.832000 0.00907
843.092000 0.00998
843.351000 0.01105
843.610000 0.01198
843.870000 0.01310
844.129000 0.01425
844.388000 0.01577
844.648000 0.01721
844.907000 0.01888
845.166000 0.02089
845.426000 0.02324
845.685000 0.02585
845.944000 0.02856
846.204000 0.03184
846.463000 0.03579
846.722000 0.03994
846.982000 0.04485
847.241000 0.05043
847.500000 0.05726
847.760000 0.06518
848.019000 0.07410
848.279000 0.08408
848.538000 0.09591
848.797000 0.10951
849.057000 0.12488
849.316000 0.14182
849.575000 0.16092
849.835000 0.18299
850.094000 0.20971
850.353000 0.23809
850.613000 0.27049
850.872000 0.30613
851.131000 0.34426
851.391000 0.38585
851.650000 0.43182
851.909000 0.47719
852.169000 0.52326
852.428000 0.57208
852.687000 0.61951
852.947000 0.66247
853.206000 0.70792
853.466000 0.75085
853.725000 0.79029
853.984000 0.83135
854.244000 0.86875
854.503000 0.89242
854.762000 0.92018
855.022000 0.94016
855.281000 0.94893
855.540000 0.95445
855.800000 0.95825
856.059000 0.95716
856.318000 0.95313
856.578000 0.94532
856.837000 0.93834
857.096000 0.92823
857.356000 0.92095
857.615000 0.91082
857.874000 0.89836
858.134000 0.89337
858.393000 0.88466
858.653000 0.87639
858.912000 0.87264
859.171000 0.86813
859.431000 0.86265
859.690000 0.85794
859.949000 0.86013
860.209000 0.86102
860.468000 0.85899
860.727000 0.86062
860.987000 0.86461
861.246000 0.86792
861.505000 0.87355
861.765000 0.87900
862.024000 0.88338
862.283000 0.89123
862.543000 0.89767
862.802000 0.90770
863.061000 0.91500
863.321000 0.92185
863.580000 0.93279
863.840000 0.94239
864.099000 0.95215
864.358000 0.96235
864.618000 0.97048
864.877000 0.98116
865.136000 0.98873
865.396000 0.99220
865.655000 0.99393
865.914000 0.99749
866.174000 0.99783
866.433000 1.00000
866.692000 0.99420
866.952000 0.99329
867.211000 0.98929
867.470000 0.97812
867.730000 0.96401
867.989000 0.95227
868.248000 0.93624
868.508000 0.92097
868.767000 0.90245
869.027000 0.88199
869.286000 0.85687
869.545000 0.82950
869.805000 0.80426
870.064000 0.77541
870.323000 0.74381
870.583000 0.71035
870.842000 0.67546
871.101000 0.64194
871.361000 0.60493
871.620000 0.57224
871.879000 0.53843
872.139000 0.50456
872.398000 0.46906
872.657000 0.43539
872.917000 0.40388
873.176000 0.37146
873.435000 0.34066
873.695000 0.31402
873.954000 0.28727
874.214000 0.26452
874.473000 0.24412
874.732000 0.22416
874.992000 0.20374
875.251000 0.18577
875.510000 0.17016
875.770000 0.15676
876.029000 0.14393
876.288000 0.13177
876.548000 0.11983
876.807000 0.10903
877.066000 0.10047
877.326000 0.09350
877.585000 0.08614
877.844000 0.07913
878.104000 0.07357
878.363000 0.06854
878.622000 0.06330
878.882000 0.05890
879.141000 0.05524
879.401000 0.05102
879.660000 0.04648
879.919000 0.04336
880.179000 0.04087
880.438000 0.03756
880.697000 0.03453
880.957000 0.03265
881.216000 0.03065
881.475000 0.02795
881.735000 0.02632
881.994000 0.02499
882.253000 0.02310
882.513000 0.02155
882.772000 0.02065
883.031000 0.01914
883.291000 0.01765
883.550000 0.01677
883.809000 0.01586
884.069000 0.01457
884.328000 0.01385
884.588000 0.01318
884.847000 0.01223
885.106000 0.01130
885.366000 0.01074
885.625000 0.01021
885.884000 0.00952
886.144000 0.00897
886.403000 0.00865
886.662000 0.00800
886.922000 0.00728
887.181000 0.00700
887.440000 0.00674
887.700000 0.00629
887.959000 0.00598
888.218000 0.00565
888.478000 0.00525
888.737000 0.00491
888.996000 0.00465
889.256000 0.00431
889.515000 0.00415
889.775000 0.00385
890.034000 0.00363
890.293000 0.00335
890.553000 0.00307
890.812000 0.00292
891.071000 0.00272
891.331000 0.00264
891.590000 0.00241
891.849000 0.00225
892.109000 0.00215
892.368000 0.00199
892.627000 0.00194
892.887000 0.00180
893.146000 0.00163
893.405000 0.00150
893.665000 0.00140
893.924000 0.00135
894.183000 0.00123
894.443000 0.00111
894.702000 0.00106
894.962000 0.00098
895.221000 0.00095
895.480000 0.00087
895.740000 0.00080
895.999000 0.00077
896.258000 0.00075
896.518000 0.00056
896.777000 0.00053
897.036000 0.00038
897.296000 0.00039
897.555000 0.00033
897.814000 0.00031
898.074000 0.00026
898.333000 0.00025
898.592000 0.00023
898.852000 0.00016
899.111000 0.00013
899.370000 0.00017
899.630000 0.00010
899.889000 0.00001
900.149000 0.00000
