# extracted from http://earth.eo.esa.int/pub/ESA_DOC/MERIS_Wavelengths_and_Irradiances_Model2004.xls
# "The data contained herein correspond to the MERIS Spectral Model derived in 2004."
# "The bands definition correspond to the so-called SciHiO2 band set, used since 24 December 2002."
# Response function of nominal camera of MERIS.
757.0000 0.000000
757.1000 0.000000
757.2000 0.000000
757.3000 0.000000
757.4000 0.000048
757.5000 0.000088
757.6000 0.000159
757.7000 0.000282
757.8000 0.000490
757.9000 0.000834
758.0000 0.001390
758.1000 0.002272
758.2000 0.003639
758.3000 0.005713
758.4000 0.008790
758.5000 0.013254
758.6000 0.019592
758.7000 0.028382
758.8000 0.040309
758.9000 0.056105
759.0000 0.076553
759.1000 0.102421
759.2000 0.134327
759.3000 0.172773
759.4000 0.217899
759.5000 0.269556
759.6000 0.327196
759.7000 0.389723
759.8000 0.455767
759.9000 0.523466
760.0000 0.590859
760.1000 0.655936
760.2000 0.716704
760.3000 0.771641
760.4000 0.819553
760.5000 0.859910
760.6000 0.892751
760.7000 0.918588
760.8000 0.938409
760.9000 0.953377
761.0000 0.964737
761.1000 0.973592
761.2000 0.980767
761.3000 0.986783
761.4000 0.991822
761.5000 0.995836
761.6000 0.998631
761.7000 1.000000
761.8000 0.999821
761.9000 0.998112
762.0000 0.995021
762.1000 0.990762
762.2000 0.985514
762.3000 0.979284
762.4000 0.971824
762.5000 0.962549
762.6000 0.950550
762.7000 0.934701
762.8000 0.913738
762.9000 0.886530
763.0000 0.852179
763.1000 0.810207
763.2000 0.760765
763.3000 0.704478
763.4000 0.642654
763.5000 0.576935
763.6000 0.509242
763.7000 0.441713
763.8000 0.376236
763.9000 0.314615
764.0000 0.258171
764.1000 0.207807
764.2000 0.164081
764.3000 0.127030
764.4000 0.096444
764.5000 0.071789
764.6000 0.052375
764.7000 0.037465
764.8000 0.026264
764.9000 0.018051
765.0000 0.012160
765.1000 0.008026
765.2000 0.005194
765.3000 0.003293
765.4000 0.002047
765.5000 0.001247
765.6000 0.000744
765.7000 0.000436
765.8000 0.000250
765.9000 0.000000
766.0000 0.000000
