# MODIS AQUA relative spectral response function
# (see http://mcst.gsfc.nasa.gov/calibration/parameters)
# converted from ftp://mcst.ssaihq.com/pub/permanent/MCST/Aqua_IB_OOB_Merged_RSR
# 
# LAMBDA   RSR
# 
10000.00 0.0005430000000000
10100.00 0.0008620000000000
10200.00 0.0002310000000000
10300.00 0.0001980000000000
10400.00 0.0007510000000000
10500.00 0.0001010000000000
10600.00 0.0004580000000000
10700.00 0.0003020000000000
10800.00 0.0005790000000000
10900.00 0.0009000000000000
11000.00 0.0002020000000000
11100.00 0.0002180000000000
11200.00 0.0009440000000000
11300.00 0.0005160000000000
11400.00 0.0014700000000000
11500.00 0.0009820000000000
11600.00 0.0004010000000000
11700.00 0.0002160000000000
11800.00 0.0007770000000000
11900.00 0.0001920000000000
12000.00 0.0001830000000000
12100.00 0.0005520000000000
12200.00 0.0000887000000000
12300.00 0.0004030000000000
12400.00 0.0008910000000000
12500.00 0.0007160000000000
12600.00 0.0001410000000000
12700.00 0.0000680000000000
12800.00 0.0009650000000000
12900.00 0.0029200000000000
13000.00 0.0099300000000000
13059.00 0.0100000000000000
13067.00 0.0115100000000000
13087.00 0.0196700000000000
13107.00 0.0319900000000000
13127.00 0.0550100000000000
13147.00 0.0977200000000000
13167.00 0.1775100000000000
13187.00 0.3092300000000000
13207.00 0.4943000000000000
13227.00 0.6949500000000000
13247.00 0.8600100000000001
13267.00 0.9542800000000000
13287.00 0.9941100000000000
13307.00 1.0000000000000000
13327.00 0.9884200000000000
13347.00 0.9749400000000000
13367.00 0.9697800000000000
13387.00 0.9591700000000000
13407.00 0.9475400000000000
13427.00 0.9290800000000000
13447.00 0.9126100000000000
13467.00 0.8753600000000000
13487.00 0.7925300000000000
13507.00 0.6518500000000000
13527.00 0.4708500000000000
13547.00 0.3033400000000000
13567.00 0.1801500000000000
13587.00 0.1005800000000000
13607.00 0.0574300000000000
13627.00 0.0328100000000000
13647.00 0.0194300000000000
13667.00 0.0120200000000000
13680.00 0.0100000000000000
13700.00 0.0061100000000000
13800.00 0.0010900000000000
13900.00 0.0000157000000000
14000.00 0.0012300000000000
14100.00 0.0005760000000000
