# MODIS TERRA relative spectral response function
# (see http://mcst.gsfc.nasa.gov/calibration/parameters)
# converted from http://mcst.gsfc.nasa.gov/sites/mcst.gsfc/files/file_attachments/MODIS_PFM_IB_OOB_RSR_merged.xls
# 
# LAMBDA   RSR
# 
 1220.00 0.0004632710000000
 1260.00 0.0022811800000000
 1300.00 0.0045969800000000
 1331.60 0.0010318000000000
 1332.60 0.0019226400000000
 1333.60 0.0029242300000000
 1334.60 0.0040960200000000
 1335.60 0.0055959200000000
 1336.60 0.0074338000000000
 1337.60 0.0093898100000000
 1338.60 0.0119033000000000
 1339.60 0.0146036000000000
 1340.60 0.0177924000000000
 1341.60 0.0214855000000000
 1342.60 0.0262274000000000
 1343.60 0.0313244000000000
 1344.60 0.0373512000000000
 1345.60 0.0444354000000000
 1346.60 0.0525043000000000
 1347.60 0.0620243000000000
 1348.60 0.0726774000000000
 1349.60 0.0852112000000000
 1350.60 0.0993051000000000
 1351.60 0.1147280000000000
 1352.60 0.1311730000000000
 1353.60 0.1491660000000000
 1354.60 0.1684290000000000
 1355.60 0.1896150000000000
 1356.60 0.2115760000000000
 1357.60 0.2351760000000000
 1358.60 0.2603640000000000
 1359.60 0.2864820000000000
 1360.60 0.3142870000000000
 1361.60 0.3434730000000000
 1362.60 0.3747580000000000
 1363.60 0.4073240000000000
 1364.60 0.4410750000000000
 1365.60 0.4772780000000000
 1366.60 0.5161010000000000
 1367.60 0.5558920000000001
 1368.60 0.5971120000000000
 1369.60 0.6409629999999999
 1370.60 0.6855170000000000
 1371.60 0.7290640000000000
 1372.60 0.7727760000000000
 1373.60 0.8154960000000000
 1374.60 0.8566000000000000
 1375.60 0.8932580000000000
 1376.60 0.9251310000000000
 1377.60 0.9529350000000000
 1378.60 0.9744040000000000
 1379.60 0.9889730000000000
 1380.60 0.9971400000000000
 1381.60 1.0000000000000000
 1382.60 0.9973270000000000
 1383.60 0.9909000000000000
 1384.60 0.9821980000000000
 1385.60 0.9703750000000000
 1386.60 0.9561870000000000
 1387.60 0.9394200000000000
 1388.60 0.9213510000000000
 1389.60 0.9058349999999999
 1390.60 0.8894760000000000
 1391.60 0.8722020000000000
 1392.60 0.8539369999999999
 1393.60 0.8333400000000000
 1394.60 0.8078120000000000
 1395.60 0.7769590000000000
 1396.60 0.7404070000000000
 1397.60 0.6962520000000000
 1398.60 0.6457430000000000
 1399.60 0.5913330000000000
 1400.60 0.5339130000000000
 1401.60 0.4731210000000000
 1402.60 0.4142330000000000
 1403.60 0.3566340000000000
 1404.60 0.3030340000000000
 1405.60 0.2543550000000000
 1406.60 0.2122960000000000
 1407.60 0.1749540000000000
 1408.60 0.1439240000000000
 1409.60 0.1178090000000000
 1410.60 0.0964135000000000
 1411.60 0.0786893000000000
 1412.60 0.0641867000000000
 1413.60 0.0525876000000000
 1414.60 0.0427227000000000
 1415.60 0.0350786000000000
 1416.60 0.0285984000000000
 1417.60 0.0234474000000000
 1418.60 0.0189223000000000
 1419.60 0.0154712000000000
 1420.60 0.0137052000000000
 1460.00 0.0009382310000000
 1500.00 0.0002801960000000
 1540.00 0.0000583000000000
 1580.00 0.0000254000000000
 1620.00 0.0000079100000000
 1660.00 0.0000117000000000
 1700.00 0.0000154000000000
 1740.00 0.0000241000000000
 1780.00 0.0000296000000000
 1820.00 0.0000376000000000
 1860.00 0.0000173000000000
 1900.00 0.0000244000000000
 1940.00 0.0000092700000000
 1980.00 0.0000082900000000
 2020.00 0.0000061500000000
 2060.00 0.0000103000000000
 2100.00 0.0000261000000000
 2140.00 0.0000098900000000
 2180.00 0.0000146000000000
 2220.00 0.0000142000000000
 2260.00 0.0000070200000000
 2300.00 0.0000105000000000
 2360.00 0.0000254000000000
 2400.00 0.0000710000000000
 2440.00 0.0001215590000000
 2480.00 0.0005168710000000
 2520.00 0.0011282300000000
 2560.00 0.0006350180000000
