# MODIS TERRA relative spectral response function
# (see http://mcst.gsfc.nasa.gov/calibration/parameters)
# converted from http://mcst.gsfc.nasa.gov/sites/mcst.gsfc/files/file_attachments/MODIS_PFM_IB_OOB_RSR_merged.xls
# 
# LAMBDA   RSR
# 
10003.00 0.0011235300000000
10104.00 0.0007654070000000
10204.00 0.0006028960000000
10303.00 0.0012338800000000
10404.00 0.0015548900000000
10503.00 0.0002748640000000
10569.00 0.0003511040000000
10593.00 0.0006642890000000
10618.00 0.0011277500000000
10642.00 0.0020880700000000
10668.00 0.0037452800000000
10692.00 0.0064128600000000
10718.00 0.0097771400000000
10743.00 0.0139840000000000
10767.00 0.0188693000000000
10793.00 0.0235521000000000
10817.00 0.0276570000000000
10843.00 0.0304467000000000
10868.00 0.0324009000000000
10892.00 0.0329155000000000
10918.00 0.0336729000000000
10942.00 0.0339548000000000
10968.00 0.0346650000000000
10993.00 0.0351104000000000
11017.00 0.0346570000000000
11043.00 0.0340049000000000
11067.00 0.0325423000000000
11093.00 0.0312111000000000
11118.00 0.0299542000000000
11142.00 0.0291476000000000
11168.00 0.0280010000000000
11192.00 0.0266528000000000
11218.00 0.0246465000000000
11243.00 0.0220644000000000
11267.00 0.0188422000000000
11293.00 0.0154716000000000
11317.00 0.0122495000000000
11343.00 0.0095696900000000
11368.00 0.0070248900000000
11392.00 0.0048986000000000
11418.00 0.0032999800000000
11442.00 0.0020943900000000
11468.00 0.0012664800000000
11493.00 0.0007819080000000
11517.00 0.0004715330000000
11538.00 0.0003511040000000
11604.00 0.0017153900000000
11704.00 0.0008456590000000
11803.00 0.0004223280000000
11904.00 0.0006109210000000
12003.00 0.0005998860000000
12104.00 0.0001444540000000
12204.00 0.0002447700000000
12303.00 0.0003210090000000
12404.00 0.0010934400000000
12503.00 0.0013743200000000
12604.00 0.0002186880000000
12704.00 0.0023774700000000
12803.00 0.0006600750000000
12904.00 0.0003862140000000
13003.00 0.0000102000000000
13104.00 0.0035411300000000
13173.00 0.0019050800000000
13192.00 0.0018654100000000
13232.00 0.0017229000000000
13253.00 0.0044882700000000
13272.00 0.0042975100000000
13293.00 0.0037623300000000
13312.00 0.0048571000000000
13333.00 0.0079285400000000
13352.00 0.0084593000000000
13373.00 0.0097076100000000
13392.00 0.0165075000000000
13413.00 0.0255277000000000
13432.00 0.0454338000000000
13453.00 0.0805969000000000
13472.00 0.1456790000000000
13493.00 0.2639150000000000
13512.00 0.4375940000000000
13532.00 0.6384720000000000
13553.00 0.8011940000000000
13572.00 0.8918690000000000
13593.00 0.9134290000000000
13612.00 0.9080740000000000
13633.00 0.9108340000000000
13652.00 0.9392550000000000
13673.00 0.9686620000000000
13692.00 1.0000000000000000
13713.00 0.9822370000000000
13732.00 0.9594880000000000
13753.00 0.9350480000000000
13772.00 0.9043610000000000
13793.00 0.8478610000000000
13812.00 0.7583540000000000
13833.00 0.6219510000000000
13852.00 0.4605850000000000
