# MODIS TERRA relative spectral response function
# (see http://mcst.gsfc.nasa.gov/calibration/parameters)
# converted from http://mcst.gsfc.nasa.gov/sites/mcst.gsfc/files/file_attachments/MODIS_PFM_IB_OOB_RSR_merged.xls
# 
# LAMBDA   RSR
# 
10003.00 0.0004897340000000
10104.00 0.0003335000000000
10204.00 0.0009624430000000
10303.00 0.0004346520000000
10404.00 0.0022033000000000
10503.00 0.0015923900000000
10569.00 0.0008312460000000
10593.00 0.0015727600000000
10618.00 0.0026700000000000
10642.00 0.0049434100000000
10668.00 0.0088668900000000
10692.00 0.0151828000000000
10718.00 0.0231477000000000
10743.00 0.0331066000000000
10767.00 0.0446750000000000
10793.00 0.0557606000000000
10817.00 0.0654772000000000
10843.00 0.0720841000000000
10868.00 0.0767110000000000
10892.00 0.0779278000000000
10918.00 0.0797215000000000
10942.00 0.0803885000000000
10968.00 0.0820710000000000
10993.00 0.0831246000000000
11017.00 0.0820520000000000
11043.00 0.0805067000000000
11067.00 0.0770445000000000
11093.00 0.0738928000000000
11118.00 0.0709173000000000
11142.00 0.0690074000000000
11168.00 0.0662924000000000
11192.00 0.0631016000000000
11218.00 0.0583515000000000
11243.00 0.0522393000000000
11267.00 0.0446099000000000
11293.00 0.0366299000000000
11317.00 0.0290015000000000
11343.00 0.0226560000000000
11368.00 0.0166319000000000
11392.00 0.0115974000000000
11418.00 0.0078129100000000
11442.00 0.0049583300000000
11468.00 0.0029982900000000
11493.00 0.0018511700000000
11517.00 0.0011163700000000
11538.00 0.0008312460000000
11604.00 0.0021832700000000
11704.00 0.0016124200000000
11803.00 0.0015323000000000
11904.00 0.0005808710000000
12003.00 0.0021832700000000
12104.00 0.0023435100000000
12204.00 0.0014621900000000
12303.00 0.0011417100000000
12404.00 0.0002924380000000
12503.00 0.0002363540000000
12604.00 0.0002373560000000
12704.00 0.0033350000000000
12803.00 0.0021332000000000
12904.00 0.0015222800000000
13003.00 0.0020230300000000
13104.00 0.0011617400000000
13204.00 0.0018728100000000
13303.00 0.0008913360000000
13404.00 0.0014121200000000
13473.00 0.0026723800000000
13494.00 0.0034457500000000
13513.00 0.0045485000000000
13534.00 0.0042719300000000
13553.00 0.0056440200000000
13574.00 0.0093300400000000
13593.00 0.0121769000000000
13614.00 0.0151352000000000
13633.00 0.0229211000000000
13654.00 0.0343506000000000
13673.00 0.0648499000000000
13694.00 0.1107950000000000
13713.00 0.2046470000000000
13734.00 0.3594640000000000
13753.00 0.5532210000000000
13774.00 0.7576480000000000
13793.00 0.9107740000000000
13814.00 0.9785690000000000
13833.00 1.0000000000000000
13854.00 0.9952640000000000
13873.00 0.9905280000000000
13894.00 0.9857920000000000
13913.00 0.9780680000000000
13934.00 0.9454590000000000
13954.00 0.9363930000000000
13973.00 0.9321660000000001
13994.00 0.9433300000000000
14013.00 0.9129690000000000
14034.00 0.8634760000000000
