# HIMAWARI8 relative spectral response function for band 12
# (see http://www.data.jma.go.jp/mscweb/en/himawari89/space_segment/spsg_ahi.html#band)
# converted from 
# http://www.data.jma.go.jp/mscweb/en/himawari89/space_segment/srf_201309/AHI-08_SpectralResponsivity.zip
# http://www.data.jma.go.jp/mscweb/en/himawari89/space_segment/srf_201310/AHI-09_SpectralResponsivity.zip
# 
# LAMBDA   RSR
# 
 9236.17 0.0009913060000000
 9237.02 0.0010032260000000
 9237.88 0.0010172830000000
 9238.73 0.0010317840000000
 9239.58 0.0010466430000000
 9240.44 0.0010617990000000
 9241.29 0.0010771930000000
 9242.14 0.0010927870000000
 9243.00 0.0011085670000000
 9243.85 0.0011244320000000
 9244.71 0.0011404290000000
 9245.56 0.0011566100000000
 9246.42 0.0011729670000000
 9247.27 0.0011895350000000
 9248.13 0.0012064100000000
 9248.98 0.0012236010000000
 9249.84 0.0012412380000000
 9250.69 0.0012593070000000
 9251.55 0.0012778380000000
 9252.41 0.0012968870000000
 9253.26 0.0013164380000000
 9254.12 0.0013364340000000
 9254.97 0.0013569980000000
 9255.83 0.0013779530000000
 9256.69 0.0013992650000000
 9257.54 0.0014209480000000
 9258.40 0.0014428990000000
 9259.26 0.0014650690000000
 9260.12 0.0014874910000000
 9260.97 0.0015100360000000
 9261.83 0.0015327140000000
 9262.69 0.0015554140000000
 9263.55 0.0015781500000000
 9264.41 0.0016010140000000
 9265.26 0.0016240530000000
 9266.12 0.0016472920000000
 9266.98 0.0016708160000000
 9267.84 0.0016947260000000
 9268.70 0.0017191230000000
 9269.56 0.0017442440000000
 9270.42 0.0017701680000000
 9271.28 0.0017970120000000
 9272.14 0.0018250070000000
 9273.00 0.0018543260000000
 9273.86 0.0018849270000000
 9274.72 0.0019171160000000
 9275.58 0.0019508860000000
 9276.44 0.0019862490000000
 9277.30 0.0020233780000000
 9278.16 0.0020621880000000
 9279.02 0.0021027120000000
 9279.88 0.0021450290000000
 9280.74 0.0021891090000000
 9281.60 0.0022347040000000
 9282.47 0.0022818340000000
 9283.33 0.0023304500000000
 9284.19 0.0023804260000000
 9285.05 0.0024318800000000
 9285.91 0.0024845600000000
 9286.78 0.0025385190000000
 9287.64 0.0025936280000000
 9288.50 0.0026499310000000
 9289.36 0.0027073760000000
 9290.23 0.0027659240000000
 9291.09 0.0028257030000000
 9291.95 0.0028868530000000
 9292.82 0.0029493680000000
 9293.68 0.0030132770000000
 9294.54 0.0030786140000000
 9295.41 0.0031454550000000
 9296.27 0.0032138720000000
 9297.14 0.0032840280000000
 9298.00 0.0033560010000000
 9298.87 0.0034299890000000
 9299.73 0.0035061220000000
 9300.60 0.0035844080000000
 9301.46 0.0036649480000000
 9302.33 0.0037480220000000
 9303.19 0.0038337620000000
 9304.06 0.0039222910000000
 9304.92 0.0040134760000000
 9305.79 0.0041076820000000
 9306.65 0.0042046880000000
 9307.52 0.0043047180000000
 9308.39 0.0044078270000000
 9309.25 0.0045139330000000
 9310.12 0.0046230860000000
 9310.99 0.0047353740000000
 9311.85 0.0048509870000000
 9312.72 0.0049698630000000
 9313.59 0.0050920910000000
 9314.46 0.0052178100000000
 9315.32 0.0053470930000000
 9316.19 0.0054799780000000
 9317.06 0.0056166320000000
 9317.93 0.0057569310000000
 9318.80 0.0059012810000000
 9319.66 0.0060501200000000
 9320.53 0.0062033980000000
 9321.40 0.0063613650000000
 9322.27 0.0065244760000000
 9323.14 0.0066928430000000
 9324.01 0.0068666800000000
 9324.88 0.0070463410000000
 9325.75 0.0072323910000000
 9326.62 0.0074248010000000
 9327.49 0.0076242980000000
 9328.36 0.0078307330000000
 9329.23 0.0080446930000000
 9330.10 0.0082666950000000
 9330.97 0.0084967280000000
 9331.84 0.0087353160000000
 9332.71 0.0089838320000000
 9333.58 0.0092427590000000
 9334.45 0.0095111160000000
 9335.32 0.0097883830000000
 9336.20 0.0100749070000000
 9337.07 0.0103703090000000
 9337.94 0.0106759040000000
 9338.81 0.0109911980000000
 9339.68 0.0113164200000000
 9340.56 0.0116516820000000
 9341.43 0.0119973780000000
 9342.30 0.0123539830000000
 9343.17 0.0127215150000000
 9344.05 0.0131002580000000
 9344.92 0.0134902920000000
 9345.79 0.0138917850000000
 9346.67 0.0143049530000000
 9347.54 0.0147299470000000
 9348.42 0.0151670260000000
 9349.29 0.0156166920000000
 9350.16 0.0160794050000000
 9351.04 0.0165560460000000
 9351.91 0.0170473810000000
 9352.79 0.0175525520000000
 9353.66 0.0180751770000000
 9354.54 0.0186303170000000
 9355.41 0.0192187810000000
 9356.29 0.0198329310000000
 9357.16 0.0204675100000000
 9358.04 0.0211250620000000
 9358.91 0.0218059180000000
 9359.79 0.0225117220000000
 9360.67 0.0232410070000000
 9361.54 0.0239967610000000
 9362.42 0.0247805220000000
 9363.30 0.0255932550000000
 9364.17 0.0264346770000000
 9365.05 0.0273066800000000
 9365.93 0.0282042290000000
 9366.80 0.0291164220000000
 9367.68 0.0300574500000000
 9368.56 0.0310333810000000
 9369.44 0.0320436390000000
 9370.31 0.0330875410000000
 9371.19 0.0341664990000000
 9372.07 0.0352807040000000
 9372.95 0.0364303480000000
 9373.83 0.0376361460000000
 9374.71 0.0389034930000000
 9375.59 0.0402270780000000
 9376.47 0.0415946550000000
 9377.34 0.0430103930000000
 9378.22 0.0444708090000000
 9379.10 0.0459822830000000
 9379.98 0.0475459560000000
 9380.86 0.0491774950000000
 9381.74 0.0508663470000000
 9382.62 0.0526154100000000
 9383.50 0.0544279120000000
 9384.38 0.0563034700000000
 9385.27 0.0582491700000000
 9386.15 0.0602632510000000
 9387.03 0.0623515100000000
 9387.91 0.0645153140000000
 9388.79 0.0667648120000000
 9389.67 0.0691054260000000
 9390.55 0.0715298980000000
 9391.44 0.0740461670000000
 9392.32 0.0766667050000000
 9393.20 0.0793888880000000
 9394.08 0.0822196800000000
 9394.96 0.0851541070000000
 9395.85 0.0882031570000000
 9396.73 0.0913647850000000
 9397.61 0.0946418330000000
 9398.50 0.0980382900000000
 9399.38 0.1015566780000000
 9400.26 0.1051958600000000
 9401.15 0.1089553260000000
 9402.03 0.1128424950000000
 9402.91 0.1168496780000000
 9403.80 0.1209898290000000
 9404.68 0.1252684440000000
 9405.57 0.1296898690000000
 9406.45 0.1342591120000000
 9407.34 0.1389744390000000
 9408.22 0.1438319720000000
 9409.11 0.1488426820000000
 9409.99 0.1540242940000000
 9410.88 0.1593641750000000
 9411.76 0.1648530030000000
 9412.65 0.1705090620000000
 9413.54 0.1763426050000000
 9414.42 0.1823479030000000
 9415.31 0.1885363120000000
 9416.20 0.1949256310000000
 9417.08 0.2015017780000000
 9417.97 0.2082630780000000
 9418.86 0.2152099690000000
 9419.74 0.2223573970000000
 9420.63 0.2297166600000000
 9421.52 0.2372797540000000
 9422.41 0.2450328120000000
 9423.29 0.2529837750000000
 9424.18 0.2611180170000000
 9425.07 0.2694512910000000
 9425.96 0.2779587270000000
 9426.85 0.2866556440000000
 9427.74 0.2955319520000000
 9428.63 0.3045684860000000
 9429.51 0.3137479550000000
 9430.40 0.3230652550000000
 9431.29 0.3325232650000000
 9432.18 0.3421150680000000
 9433.07 0.3518454230000000
 9433.96 0.3616756870000000
 9434.85 0.3716600650000000
 9435.74 0.3817710100000000
 9436.63 0.3919573050000000
 9437.52 0.4022376490000000
 9438.41 0.4126084060000000
 9439.31 0.4230536440000000
 9440.20 0.4335792790000000
 9441.09 0.4441872600000000
 9441.98 0.4548653630000000
 9442.87 0.4656468410000000
 9443.76 0.4764874650000000
 9444.65 0.4873868030000000
 9445.55 0.4983518650000000
 9446.44 0.5093479230000000
 9447.33 0.5203473720000000
 9448.22 0.5313692370000000
 9449.12 0.5424155630000000
 9450.01 0.5534484390000000
 9450.90 0.5644850980000000
 9451.80 0.5755095410000000
 9452.69 0.5864764730000001
 9453.58 0.5974027330000000
 9454.48 0.6082561210000000
 9455.37 0.6190091760000000
 9456.26 0.6296619790000000
 9457.16 0.6401849070000000
 9458.05 0.6505702940000000
 9458.95 0.6608245200000000
 9459.84 0.6708984110000000
 9460.74 0.6807842490000000
 9461.63 0.6904640030000000
 9462.53 0.6999472799999999
 9463.42 0.7091886890000000
 9464.32 0.7181825490000000
 9465.22 0.7269408080000000
 9466.11 0.7354869130000000
 9467.01 0.7438258050000000
 9467.90 0.7519392960000000
 9468.80 0.7598334480000000
 9469.70 0.7675177000000000
 9470.59 0.7749566700000000
 9471.49 0.7821860640000000
 9472.39 0.7892080670000000
 9473.29 0.7960231430000000
 9474.18 0.8026681810000000
 9475.08 0.8091570880000000
 9475.98 0.8154516170000000
 9476.88 0.8215713560000000
 9477.77 0.8274380110000000
 9478.67 0.8330965290000000
 9479.57 0.8385075430000000
 9480.47 0.8436659350000000
 9481.37 0.8485707370000000
 9482.27 0.8531998610000000
 9483.17 0.8575345780000000
 9484.07 0.8616096460000000
 9484.97 0.8653782480000000
 9485.87 0.8688547180000000
 9486.77 0.8720582170000000
 9487.67 0.8749800980000000
 9488.57 0.8776263320000000
 9489.47 0.8800018090000000
 9490.37 0.8821642210000000
 9491.27 0.8841616130000000
 9492.17 0.8859864270000000
 9493.07 0.8876092340000000
 9493.97 0.8890737720000000
 9494.87 0.8903995200000000
 9495.77 0.8916197350000000
 9496.68 0.8927463010000000
 9497.58 0.8938005490000001
 9498.48 0.8947593030000000
 9499.38 0.8956209310000000
 9500.29 0.8963880290000000
 9501.19 0.8970691110000000
 9502.09 0.8976844540000000
 9502.99 0.8982528490000000
 9503.90 0.8987952350000000
 9504.80 0.8993129510000000
 9505.70 0.8998001110000000
 9506.61 0.9002507370000000
 9507.51 0.9006605360000000
 9508.41 0.9010207660000000
 9509.32 0.9013258660000000
 9510.22 0.9015869359999999
 9511.13 0.9018143470000000
 9512.03 0.9020040900000000
 9512.94 0.9021594290000000
 9513.84 0.9023073690000000
 9514.75 0.9024673730000000
 9515.65 0.9026164440000000
 9516.56 0.9027563310000000
 9517.46 0.9029107119999999
 9518.37 0.9031007950000000
 9519.28 0.9033447570000001
 9520.18 0.9036505460000001
 9521.09 0.9040359790000000
 9522.00 0.9045080710000000
 9522.90 0.9050624060000000
 9523.81 0.9056940100000000
 9524.72 0.9063993370000000
 9525.62 0.9071608610000000
 9526.53 0.9079642070000000
 9527.44 0.9087936060000000
 9528.35 0.9096335800000001
 9529.25 0.9104673530000000
 9530.16 0.9112777760000000
 9531.07 0.9120625740000000
 9531.98 0.9128239810000000
 9532.89 0.9135480820000000
 9533.80 0.9142283050000000
 9534.71 0.9148767330000001
 9535.62 0.9155061630000000
 9536.52 0.9161177280000000
 9537.43 0.9167118740000000
 9538.34 0.9172941280000000
 9539.25 0.9178736250000000
 9540.16 0.9184617680000000
 9541.07 0.9190713410000000
 9541.98 0.9197187780000000
 9542.90 0.9204218080000000
 9543.81 0.9211725070000000
 9544.72 0.9219826140000000
 9545.63 0.9228535040000000
 9546.54 0.9237700440000000
 9547.45 0.9247126270000000
 9548.36 0.9256643120000000
 9549.27 0.9266085540000000
 9550.19 0.9275186130000000
 9551.10 0.9283826320000000
 9552.01 0.9292254260000000
 9552.92 0.9300364130000000
 9553.84 0.9308113400000000
 9554.75 0.9315376220000000
 9555.66 0.9322136510000000
 9556.57 0.9328458220000000
 9557.49 0.9334352100000000
 9558.40 0.9339835359999999
 9559.32 0.9344944290000000
 9560.23 0.9349697690000000
 9561.14 0.9354125180000000
 9562.06 0.9358285330000000
 9562.97 0.9362263420000000
 9563.89 0.9366194910000000
 9564.80 0.9370112550000000
 9565.72 0.9374006740000000
 9566.63 0.9377852340000000
 9567.55 0.9381792890000000
 9568.46 0.9385850280000000
 9569.38 0.9390005400000000
 9570.29 0.9394300710000000
 9571.21 0.9398448990000000
 9572.13 0.9402492990000000
 9573.04 0.9406361230000000
 9573.96 0.9409981410000000
 9574.88 0.9413255350000000
 9575.79 0.9416173010000000
 9576.71 0.9418449950000000
 9577.63 0.9420073830000000
 9578.54 0.9421271690000000
 9579.46 0.9422083700000000
 9580.38 0.9422231330000000
 9581.30 0.9421563840000000
 9582.22 0.9419938180000000
 9583.13 0.9417792149999999
 9584.05 0.9415208240000000
 9584.97 0.9412212240000000
 9585.89 0.9408824470000000
 9586.81 0.9405092830000000
 9587.73 0.9401116670000000
 9588.65 0.9397043660000000
 9589.57 0.9393079390000000
 9590.49 0.9389456960000000
 9591.41 0.9386229100000000
 9592.33 0.9383311710000000
 9593.25 0.9380657970000000
 9594.17 0.9378432380000000
 9595.09 0.9376546560000000
 9596.01 0.9375095180000000
 9596.93 0.9374030440000000
 9597.85 0.9373220360000000
 9598.77 0.9372611520000000
 9599.69 0.9372084380000000
 9600.61 0.9371550620000000
 9601.54 0.9370939390000000
 9602.46 0.9370161920000000
 9603.38 0.9369139780000000
 9604.30 0.9367855960000000
 9605.23 0.9366257630000000
 9606.15 0.9364374430000000
 9607.07 0.9362376200000000
 9607.99 0.9360176550000000
 9608.92 0.9357796960000000
 9609.84 0.9355184500000000
 9610.76 0.9352394180000000
 9611.69 0.9349528070000001
 9612.61 0.9346750470000000
 9613.54 0.9344086500000000
 9614.46 0.9341564959999999
 9615.38 0.9339216760000000
 9616.31 0.9337179280000000
 9617.23 0.9335513310000000
 9618.16 0.9334093360000000
 9619.08 0.9332948070000000
 9620.01 0.9331771740000000
 9620.94 0.9330661200000000
 9621.86 0.9329565909999999
 9622.79 0.9328419890000000
 9623.71 0.9327133840000000
 9624.64 0.9325662840000000
 9625.57 0.9324014050000000
 9626.49 0.9322229380000000
 9627.42 0.9320310750000000
 9628.35 0.9318307070000000
 9629.27 0.9316325490000000
 9630.20 0.9314566890000000
 9631.13 0.9313196820000000
 9632.06 0.9312208570000000
 9632.98 0.9311557930000000
 9633.91 0.9311374340000000
 9634.84 0.9311603939999999
 9635.77 0.9312304110000000
 9636.70 0.9313502500000000
 9637.63 0.9315182510000000
 9638.55 0.9317267020000000
 9639.48 0.9319767850000000
 9640.41 0.9322566590000000
 9641.34 0.9325581010000000
 9642.27 0.9328780209999999
 9643.20 0.9332148680000000
 9644.13 0.9335547150000000
 9645.06 0.9338780150000000
 9645.99 0.9342001320000000
 9646.92 0.9345060270000000
 9647.85 0.9348111430000000
 9648.78 0.9351078550000000
 9649.72 0.9354033100000000
 9650.65 0.9357041490000000
 9651.58 0.9360136449999999
 9652.51 0.9363465770000000
 9653.44 0.9367088730000001
 9654.37 0.9371042469999999
 9655.31 0.9375385420000000
 9656.24 0.9380132780000000
 9657.17 0.9385562360000000
 9658.10 0.9391707860000000
 9659.04 0.9398468870000000
 9659.97 0.9405651770000000
 9660.90 0.9413323340000000
 9661.84 0.9421458910000000
 9662.77 0.9429972230000000
 9663.70 0.9438777140000000
 9664.64 0.9447692410000000
 9665.57 0.9456580380000000
 9666.51 0.9465342040000000
 9667.44 0.9473873450000000
 9668.37 0.9482158830000000
 9669.31 0.9489824370000000
 9670.24 0.9496730580000000
 9671.18 0.9503193740000000
 9672.12 0.9509186150000000
 9673.05 0.9514802790000000
 9673.99 0.9520012990000000
 9674.92 0.9525011280000000
 9675.86 0.9529950310000000
 9676.80 0.9534911870000000
 9677.73 0.9540014710000000
 9678.67 0.9545400390000000
 9679.61 0.9551361790000000
 9680.54 0.9557943260000000
 9681.48 0.9565101690000000
 9682.42 0.9572909930000000
 9683.35 0.9581380240000000
 9684.29 0.9590454819999999
 9685.23 0.9600173210000000
 9686.17 0.9610450640000000
 9687.11 0.9621094500000000
 9688.04 0.9631644510000000
 9688.98 0.9641943470000000
 9689.92 0.9652545100000000
 9690.86 0.9663379780000000
 9691.80 0.9673998500000000
 9692.74 0.9684399379999999
 9693.68 0.9694426790000000
 9694.62 0.9703757420000000
 9695.56 0.9712431459999999
 9696.50 0.9720432290000000
 9697.44 0.9727765490000000
 9698.38 0.9734617679999999
 9699.32 0.9740852740000000
 9700.26 0.9746476580000000
 9701.20 0.9751678600000000
 9702.14 0.9756762390000000
 9703.09 0.9761946419999999
 9704.03 0.9767349610000000
 9704.97 0.9773086660000000
 9705.91 0.9779328580000000
 9706.85 0.9786154570000000
 9707.80 0.9793572780000001
 9708.74 0.9801524380000000
 9709.68 0.9809972440000000
 9710.62 0.9818670810000000
 9711.57 0.9827507190000000
 9712.51 0.9836542140000000
 9713.45 0.9845419120000000
 9714.40 0.9853900380000000
 9715.34 0.9861839310000000
 9716.28 0.9869129250000001
 9717.23 0.9875766300000000
 9718.17 0.9881454390000000
 9719.12 0.9885947610000000
 9720.06 0.9889406650000000
 9721.01 0.9892044410000000
 9721.95 0.9893717700000000
 9722.90 0.9894744110000000
 9723.84 0.9895236039999999
 9724.79 0.9895472080000000
 9725.73 0.9895715630000000
 9726.68 0.9896167540000000
 9727.63 0.9897098140000000
 9728.57 0.9898683410000000
 9729.52 0.9901177690000000
 9730.47 0.9904669659999999
 9731.41 0.9909372010000000
 9732.36 0.9915088990000001
 9733.31 0.9921807590000000
 9734.25 0.9929588390000000
 9735.20 0.9937767140000000
 9736.15 0.9946214010000000
 9737.10 0.9954655520000000
 9738.05 0.9962825100000000
 9738.99 0.9970694110000000
 9739.94 0.9978082740000001
 9740.89 0.9984552640000000
 9741.84 0.9990072320000000
 9742.79 0.9994384480000000
 9743.74 0.9997559350000000
 9744.69 0.9999531330000000
 9745.64 0.9999972400000000
 9746.59 0.9999537320000000
 9747.54 0.9997985630000000
 9748.49 0.9995572750000000
 9749.44 0.9992354770000000
 9750.39 0.9988549080000000
 9751.34 0.9984385350000000
 9752.29 0.9980079039999999
 9753.24 0.9975709470000000
 9754.19 0.9971194839999999
 9755.15 0.9966560400000000
 9756.10 0.9961866150000001
 9757.05 0.9957085970000000
 9758.00 0.9952136029999999
 9758.95 0.9946898850000000
 9759.91 0.9941175890000000
 9760.86 0.9934745189999999
 9761.81 0.9927427720000001
 9762.76 0.9919074560000000
 9763.72 0.9909393000000000
 9764.67 0.9898152250000000
 9765.62 0.9885215570000000
 9766.58 0.9870016740000001
 9767.53 0.9852261110000000
 9768.49 0.9831937230000000
 9769.44 0.9808862660000000
 9770.40 0.9782533640000000
 9771.35 0.9754050650000000
 9772.31 0.9723499810000000
 9773.26 0.9687910620000000
 9774.22 0.9650298290000000
 9775.17 0.9611168850000000
 9776.13 0.9570521030000000
 9777.08 0.9528382660000000
 9778.04 0.9483886480000000
 9778.99 0.9438356369999999
 9779.95 0.9390729410000000
 9780.91 0.9341998840000000
 9781.86 0.9291577049999999
 9782.82 0.9239266450000000
 9783.78 0.9184469680000000
 9784.74 0.9127599950000000
 9785.69 0.9069006290000000
 9786.65 0.9008653280000000
 9787.61 0.8946330120000000
 9788.57 0.8880985080000000
 9789.53 0.8812632500000001
 9790.48 0.8741767220000000
 9791.44 0.8668319200000000
 9792.40 0.8592389930000000
 9793.36 0.8514191630000000
 9794.32 0.8433174830000000
 9795.28 0.8348541000000000
 9796.24 0.8260837680000001
 9797.20 0.8170481370000000
 9798.16 0.8077093680000000
 9799.12 0.7981140700000000
 9800.08 0.7882684110000000
 9801.04 0.7781242160000000
 9802.00 0.7677083270000000
 9802.96 0.7570461120000000
 9803.92 0.7461573170000000
 9804.88 0.7350500160000000
 9805.84 0.7237327120000000
 9806.81 0.7121821040000000
 9807.77 0.7004994310000000
 9808.73 0.6886845680000000
 9809.69 0.6767627890000000
 9810.65 0.6647426220000000
 9811.62 0.6526035830000000
 9812.58 0.6403610930000000
 9813.54 0.6280769400000000
 9814.51 0.6157807050000000
 9815.47 0.6034851770000000
 9816.43 0.5912102120000000
 9817.40 0.5789296970000000
 9818.36 0.5666122930000000
 9819.32 0.5543051050000000
 9820.29 0.5420516440000001
 9821.25 0.5298301060000000
 9822.22 0.5176650070000000
 9823.18 0.5055718200000000
 9824.15 0.4933611950000000
 9825.11 0.4812420440000000
 9826.08 0.4692279900000000
 9827.04 0.4572480520000000
 9828.01 0.4454028310000000
 9828.98 0.4335988770000000
 9829.94 0.4218211560000000
 9830.91 0.4101794120000000
 9831.87 0.3986081940000000
 9832.84 0.3871779830000000
 9833.81 0.3758773830000000
 9834.78 0.3647072630000000
 9835.74 0.3537072440000000
 9836.71 0.3428740280000000
 9837.68 0.3322587660000000
 9838.65 0.3218583630000000
 9839.61 0.3116730330000000
 9840.58 0.3017286210000000
 9841.55 0.2920269750000000
 9842.52 0.2825888790000000
 9843.49 0.2734196290000000
 9844.46 0.2645144780000000
 9845.43 0.2558576430000000
 9846.40 0.2474604290000000
 9847.37 0.2393169660000000
 9848.34 0.2314233780000000
 9849.31 0.2237646150000000
 9850.28 0.2163180100000000
 9851.25 0.2090671890000000
 9852.22 0.2020316730000000
 9853.19 0.1951982980000000
 9854.16 0.1885383790000000
 9855.13 0.1820800420000000
 9856.10 0.1757850800000000
 9857.07 0.1696803440000000
 9858.04 0.1637177760000000
 9859.02 0.1579466600000000
 9859.99 0.1523357240000000
 9860.96 0.1469063830000000
 9861.93 0.1416394060000000
 9862.91 0.1365459680000000
 9863.88 0.1316187980000000
 9864.85 0.1268648630000000
 9865.82 0.1222662750000000
 9866.80 0.1178383400000000
 9867.77 0.1135980960000000
 9868.75 0.1095255740000000
 9869.72 0.1056147270000000
 9870.69 0.1018595870000000
 9871.67 0.0982430180000000
 9872.64 0.0947712650000000
 9873.62 0.0914444840000000
 9874.59 0.0882406360000000
 9875.57 0.0851587480000000
 9876.54 0.0822088260000000
 9877.52 0.0793700400000000
 9878.49 0.0766297800000000
 9879.47 0.0739939790000000
 9880.45 0.0714551980000000
 9881.42 0.0690113190000000
 9882.40 0.0666552020000000
 9883.38 0.0643824220000000
 9884.35 0.0621933420000000
 9885.33 0.0600747630000000
 9886.31 0.0580285050000000
 9887.28 0.0560601420000000
 9888.26 0.0541567360000000
 9889.24 0.0523183870000000
 9890.22 0.0505412170000000
 9891.20 0.0488239230000000
 9892.18 0.0471690490000000
 9893.15 0.0455731540000000
 9894.13 0.0440350240000000
 9895.11 0.0425546140000000
 9896.09 0.0411321240000000
 9897.07 0.0397615180000000
 9898.05 0.0384396940000000
 9899.03 0.0371651580000000
 9900.01 0.0359354010000000
 9900.99 0.0347492560000000
 9901.97 0.0336046140000000
 9902.95 0.0325028870000000
 9903.93 0.0314577080000000
 9904.91 0.0304704290000000
 9905.89 0.0295138430000000
 9906.88 0.0285865350000000
 9907.86 0.0276924760000000
 9908.84 0.0268250740000000
 9909.82 0.0259873320000000
 9910.80 0.0251760270000000
 9911.79 0.0243918740000000
 9912.77 0.0236340690000000
 9913.75 0.0229008870000000
 9914.73 0.0221924060000000
 9915.72 0.0215088760000000
 9916.70 0.0208533380000000
 9917.68 0.0202234950000000
 9918.67 0.0196164890000000
 9919.65 0.0190305770000000
 9920.63 0.0184656400000000
 9921.62 0.0179210140000000
 9922.60 0.0173966600000000
 9923.59 0.0168902910000000
 9924.57 0.0164016780000000
 9925.56 0.0159288460000000
 9926.54 0.0154721870000000
 9927.53 0.0150310170000000
 9928.51 0.0146052450000000
 9929.50 0.0141932860000000
 9930.49 0.0137953110000000
 9931.47 0.0134097410000000
 9932.46 0.0130363410000000
 9933.45 0.0126743120000000
 9934.43 0.0123233300000000
 9935.42 0.0119833910000000
 9936.41 0.0116546990000000
 9937.39 0.0113361870000000
 9938.38 0.0110281530000000
 9939.37 0.0107334400000000
 9940.36 0.0104542030000000
 9941.35 0.0101863770000000
 9942.33 0.0099270950000000
 9943.32 0.0096759420000000
 9944.31 0.0094323630000000
 9945.30 0.0091956330000000
 9946.29 0.0089657600000000
 9947.28 0.0087430620000000
 9948.27 0.0085277080000000
 9949.26 0.0083193650000000
 9950.25 0.0081173380000000
 9951.24 0.0079206870000000
 9952.23 0.0077302360000000
 9953.22 0.0075456620000000
 9954.21 0.0073665680000000
 9955.20 0.0071931060000000
 9956.19 0.0070249850000000
 9957.18 0.0068621340000000
 9958.18 0.0067043580000000
 9959.17 0.0065513660000000
 9960.16 0.0064029520000000
 9961.15 0.0062588490000000
 9962.14 0.0061185970000000
 9963.14 0.0059819470000000
 9964.13 0.0058487850000000
 9965.12 0.0057184320000000
 9966.12 0.0055914150000000
 9967.11 0.0054676220000000
 9968.10 0.0053460800000000
 9969.10 0.0052269060000000
 9970.09 0.0051095160000000
 9971.08 0.0049940540000000
 9972.08 0.0048805360000000
 9973.07 0.0047687760000000
 9974.07 0.0046590140000000
 9975.06 0.0045511700000000
 9976.06 0.0044453930000000
 9977.05 0.0043419120000000
 9978.05 0.0042409410000000
 9979.04 0.0041427160000000
 9980.04 0.0040473380000000
 9981.04 0.0039551930000000
 9982.03 0.0038662890000000
 9983.03 0.0037811000000000
 9984.03 0.0036996100000000
 9985.02 0.0036220480000000
 9986.02 0.0035481790000000
 9987.02 0.0034782330000000
 9988.01 0.0034123300000000
 9989.01 0.0033498900000000
 9990.01 0.0032906550000000
 9991.01 0.0032344920000000
 9992.01 0.0031808980000000
 9993.00 0.0031299770000000
 9994.00 0.0030810640000000
 9995.00 0.0030338320000000
 9996.00 0.0029878040000000
 9997.00 0.0029427750000000
 9998.00 0.0028984200000000
 9999.00 0.0028546440000000
10000.00 0.0028110030000000
10001.00 0.0027674770000000
10002.00 0.0027241530000000
10003.00 0.0026809250000000
10004.00 0.0026379140000000
10005.00 0.0025951250000000
10006.00 0.0025530410000000
10007.00 0.0025115560000000
10008.01 0.0024710270000000
10009.01 0.0024317010000000
10010.01 0.0023936980000000
10011.01 0.0023573150000000
10012.01 0.0023225100000000
10013.02 0.0022895360000000
10014.02 0.0022583710000000
10015.02 0.0022290260000000
10016.03 0.0022014890000000
10017.03 0.0021755260000000
10018.03 0.0021512550000000
10019.04 0.0021282880000000
10020.04 0.0021065190000000
10021.04 0.0020856900000000
10022.05 0.0020656700000000
10023.05 0.0020462190000000
10024.06 0.0020272020000000
10025.06 0.0020083760000000
10026.07 0.0019897410000000
10027.07 0.0019710510000000
10028.08 0.0019525400000000
10029.08 0.0019339590000000
10030.09 0.0019153350000000
10031.10 0.0018969210000000
10032.10 0.0018786340000000
10033.11 0.0018607360000000
10034.12 0.0018433000000000
10035.12 0.0018262250000000
10036.13 0.0018097650000000
10037.14 0.0017940160000000
10038.14 0.0017789520000000
10039.15 0.0017651680000000
10040.16 0.0017436590000000
10041.17 0.0015028650000000
10042.18 0.0010381150000000
10043.19 0.0010326490000000
10044.19 0.0010211180000000
10045.20 0.0010105170000000
10046.21 0.0010002250000000
10047.22 0.0009901420000000
