# HIMAWARI9 relative spectral response function for band 12
# (see http://www.data.jma.go.jp/mscweb/en/himawari89/space_segment/spsg_ahi.html#band)
# converted from 
# http://www.data.jma.go.jp/mscweb/en/himawari89/space_segment/srf_201309/AHI-08_SpectralResponsivity.zip
# http://www.data.jma.go.jp/mscweb/en/himawari89/space_segment/srf_201310/AHI-09_SpectralResponsivity.zip
# 
# LAMBDA   RSR
# 
 9234.46 0.0009916804368000
 9235.32 0.0010057698310000
 9236.17 0.0010200407400000
 9237.02 0.0010342854310000
 9237.88 0.0010485836580000
 9238.73 0.0010627759140000
 9239.58 0.0010769140210000
 9240.44 0.0010909178180000
 9241.29 0.0011047316190000
 9242.14 0.0011183867770000
 9243.00 0.0011319443190000
 9243.85 0.0011453227420000
 9244.71 0.0011586172850000
 9245.56 0.0011719611380000
 9246.42 0.0011853818300000
 9247.27 0.0011990126250000
 9248.13 0.0012130325720000
 9248.98 0.0012275870770000
 9249.84 0.0012427299390000
 9250.69 0.0012586885360000
 9251.55 0.0012755815240000
 9252.41 0.0012935359270000
 9253.26 0.0013127016630000
 9254.12 0.0013331797650000
 9254.97 0.0013548723250000
 9255.83 0.0013779689860000
 9256.69 0.0014024232500000
 9257.54 0.0014282605220000
 9258.40 0.0014554408100000
 9259.26 0.0014839207640000
 9260.12 0.0015137420260000
 9260.97 0.0015448077890000
 9261.83 0.0015770212830000
 9262.69 0.0016102477450000
 9263.55 0.0016443660190000
 9264.41 0.0016793093590000
 9265.26 0.0017149730950000
 9266.12 0.0017514445560000
 9266.98 0.0017885477750000
 9267.84 0.0018262627280000
 9268.70 0.0018645042140000
 9269.56 0.0019032589500000
 9270.42 0.0019425338410000
 9271.28 0.0019823509130000
 9272.14 0.0020227473250000
 9273.00 0.0020637506680000
 9273.86 0.0021054582770000
 9274.72 0.0021479049180000
 9275.58 0.0021911503080000
 9276.44 0.0022351674620000
 9277.30 0.0022801233770000
 9278.16 0.0023261559510000
 9279.02 0.0023733121560000
 9279.88 0.0024217274140000
 9280.74 0.0024715918060000
 9281.60 0.0025228938090000
 9282.47 0.0025758241100000
 9283.33 0.0026304746790000
 9284.19 0.0026868183580000
 9285.05 0.0027453205470000
 9285.91 0.0028059967300000
 9286.78 0.0028689369540000
 9287.64 0.0029342522010000
 9288.50 0.0030020089440000
 9289.36 0.0030721872780000
 9290.23 0.0031447922650000
 9291.09 0.0032199494380000
 9291.95 0.0032977787710000
 9292.82 0.0033782174810000
 9293.68 0.0034611903130000
 9294.54 0.0035467616950000
 9295.41 0.0036348685770000
 9296.27 0.0037254669530000
 9297.14 0.0038185910840000
 9298.00 0.0039141675580000
 9298.87 0.0040122026330000
 9299.73 0.0041127088580000
 9300.60 0.0042154124620000
 9301.46 0.0043206248290000
 9302.33 0.0044286717700000
 9303.19 0.0045395298270000
 9304.06 0.0046534548200000
 9304.92 0.0047707484670000
 9305.79 0.0048919177920000
 9306.65 0.0050171207860000
 9307.52 0.0051466785410000
 9308.39 0.0052808168160000
 9309.25 0.0054196515220000
 9310.12 0.0055634428550000
 9310.99 0.0057125153330000
 9311.85 0.0058674188250000
 9312.72 0.0060283078860000
 9313.59 0.0061951528640000
 9314.46 0.0063680248840000
 9315.32 0.0065470296780000
 9316.19 0.0067321798100000
 9317.06 0.0069233622120000
 9317.93 0.0071206230730000
 9318.80 0.0073238781580000
 9319.66 0.0075325584150000
 9320.53 0.0077466820220000
 9321.40 0.0079666055810000
 9322.27 0.0081927004460000
 9323.14 0.0084258660300000
 9324.01 0.0086663137490000
 9324.88 0.0089123136110000
 9325.75 0.0091644166760000
 9326.62 0.0094226975120000
 9327.49 0.0096878987200000
 9328.36 0.0099601699990000
 9329.23 0.0102403137800000
 9330.10 0.0105286530300000
 9330.97 0.0108257409600000
 9331.84 0.0111321335200000
 9332.71 0.0114481732000000
 9333.58 0.0117747211600000
 9334.45 0.0121124065600000
 9335.32 0.0124619054200000
 9336.20 0.0128240048100000
 9337.07 0.0131993261200000
 9337.94 0.0135882130000000
 9338.81 0.0139907790800000
 9339.68 0.0144075661100000
 9340.56 0.0148392652700000
 9341.43 0.0152865340200000
 9342.30 0.0157512022900000
 9343.17 0.0162318230000000
 9344.05 0.0167293854900000
 9344.92 0.0172520460800000
 9345.79 0.0178118500000000
 9346.67 0.0184040260700000
 9347.54 0.0190204675400000
 9348.42 0.0196589023700000
 9349.29 0.0203207963700000
 9350.16 0.0210065524800000
 9351.04 0.0217163564700000
 9351.91 0.0224524264500000
 9352.79 0.0232154705900000
 9353.66 0.0240055868200000
 9354.54 0.0248242452900000
 9355.41 0.0256707607700000
 9356.29 0.0265393947100000
 9357.16 0.0274235703200000
 9358.04 0.0283311436400000
 9358.91 0.0292683642000000
 9359.79 0.0302394842600000
 9360.67 0.0312385314100000
 9361.54 0.0322698751600000
 9362.42 0.0333337057800000
 9363.30 0.0344340747000000
 9364.17 0.0355786535800000
 9365.05 0.0367853305600000
 9365.93 0.0380524134900000
 9366.80 0.0393642941600000
 9367.68 0.0407225626000000
 9368.56 0.0421278019200000
 9369.44 0.0435833735600000
 9370.31 0.0450982436200000
 9371.19 0.0466802963100000
 9372.07 0.0483255196600000
 9372.95 0.0500286240000000
 9373.83 0.0517955227200000
 9374.71 0.0536284524100000
 9375.59 0.0555322323700000
 9376.47 0.0575032245900000
 9377.34 0.0595458058300000
 9378.22 0.0616611941100000
 9379.10 0.0638576999900000
 9379.98 0.0661379027700000
 9380.86 0.0685014724300000
 9381.74 0.0709523038600000
 9382.62 0.0734970459300000
 9383.50 0.0761433510700000
 9384.38 0.0788852293500000
 9385.27 0.0817306595300000
 9386.15 0.0846846270300000
 9387.03 0.0877490186500000
 9387.91 0.0909273577100000
 9388.79 0.0942187951900000
 9389.67 0.0976303716500000
 9390.55 0.1011551873000000
 9391.44 0.1047982641000000
 9392.32 0.1085663210000000
 9393.20 0.1124584186000000
 9394.08 0.1164784186000000
 9394.96 0.1206343462000000
 9395.85 0.1249292568000000
 9396.73 0.1293661927000000
 9397.61 0.1339417224000000
 9398.50 0.1386605414000000
 9399.38 0.1435314131000000
 9400.26 0.1485561520000000
 9401.15 0.1537462447000000
 9402.03 0.1590985569000000
 9402.91 0.1646229284000000
 9403.80 0.1703163933000000
 9404.68 0.1761750238000000
 9405.57 0.1822137301000000
 9406.45 0.1884403277000000
 9407.34 0.1948534886000000
 9408.22 0.2014454770000000
 9409.11 0.2082122018000000
 9409.99 0.2151661239000000
 9410.88 0.2223239406000000
 9411.76 0.2296751892000000
 9412.65 0.2372048109000000
 9413.54 0.2449284029000000
 9414.42 0.2528318153000000
 9415.31 0.2609156528000000
 9416.20 0.2692040738000000
 9417.08 0.2776325821000000
 9417.97 0.2862529228000000
 9418.86 0.2950431169000000
 9419.74 0.3039762868000000
 9420.63 0.3130732841000000
 9421.52 0.3223321344000000
 9422.41 0.3317124395000000
 9423.29 0.3412183500000000
 9424.18 0.3508628197000000
 9425.07 0.3606053885000000
 9425.96 0.3704955258000000
 9426.85 0.3804540435000000
 9427.74 0.3905131631000000
 9428.63 0.4006720413000000
 9429.51 0.4109086704000000
 9430.40 0.4212085457000000
 9431.29 0.4315743630000000
 9432.18 0.4420052454000000
 9433.07 0.4524930295000000
 9433.96 0.4630462612000000
 9434.85 0.4736572007000000
 9435.74 0.4843179808000000
 9436.63 0.4950260560000000
 9437.52 0.5057624709000000
 9438.41 0.5165280327000000
 9439.31 0.5273143436000000
 9440.20 0.5380911261000000
 9441.09 0.5488356850000000
 9441.98 0.5595975258000000
 9442.87 0.5703290170999999
 9443.76 0.5810232611000000
 9444.65 0.5916685708000000
 9445.55 0.6022280878000000
 9446.44 0.6126761896000000
 9447.33 0.6230170999000000
 9448.22 0.6332146491000000
 9449.12 0.6432076348000000
 9450.01 0.6530818505000000
 9450.90 0.6627750044000000
 9451.80 0.6722630908000000
 9452.69 0.6816055796000000
 9453.58 0.6907123444000000
 9454.48 0.6995528484000000
 9455.37 0.7081653219000000
 9456.26 0.7165712781000000
 9457.16 0.7247280555000000
 9458.05 0.7326929333000000
 9458.95 0.7404461945000000
 9459.84 0.7479867240000000
 9460.74 0.7553296721000000
 9461.63 0.7624385852000000
 9462.53 0.7693267463000000
 9463.42 0.7760036343000000
 9464.32 0.7824976458000000
 9465.22 0.7888134149000000
 9466.11 0.7949557372000000
 9467.01 0.8008809046000001
 9467.90 0.8066661657000000
 9468.80 0.8121627903999999
 9469.70 0.8174900996000000
 9470.59 0.8225169694000000
 9471.49 0.8272896961000000
 9472.39 0.8318481173000000
 9473.29 0.8361556939000000
 9474.18 0.8402196857999999
 9475.08 0.8440475407000000
 9475.98 0.8475451785000000
 9476.88 0.8508678661000000
 9477.77 0.8538153818000001
 9478.67 0.8565741706000000
 9479.57 0.8590960294000000
 9480.47 0.8614076866000000
 9481.37 0.8635449441000000
 9482.27 0.8655137019000000
 9483.17 0.8673339964000000
 9484.07 0.8690054009000000
 9484.97 0.8706434950000000
 9485.87 0.8721484300000000
 9486.77 0.8735335122000000
 9487.67 0.8748319186000000
 9488.57 0.8760589257000000
 9489.47 0.8772245283000000
 9490.37 0.8783552967000000
 9491.27 0.8794864902000000
 9492.17 0.8806372574000000
 9493.07 0.8818048398000000
 9493.97 0.8829792621000000
 9494.87 0.8841546099000001
 9495.77 0.8853305392000000
 9496.68 0.8864880181000000
 9497.58 0.8876047716000000
 9498.48 0.8886670303999999
 9499.38 0.8896549406000001
 9500.29 0.8905512189000000
 9501.19 0.8913414258000000
 9502.09 0.8920337093000000
 9502.99 0.8926403278000000
 9503.90 0.8931613112000000
 9504.80 0.8935983003000000
 9505.70 0.8939759341000000
 9506.61 0.8943075637000000
 9507.51 0.8946146841000000
 9508.41 0.8949257777000000
 9509.32 0.8952690121000000
 9510.22 0.8956665006000000
 9511.13 0.8961340698000000
 9512.03 0.8966892532000000
 9512.94 0.8973357923000000
 9513.84 0.8980671676999999
 9514.75 0.8988756478000000
 9515.65 0.8997729300000000
 9516.56 0.9007478363000000
 9517.46 0.9017956164000001
 9518.37 0.9028908146000000
 9519.28 0.9040183716000000
 9520.18 0.9051562473000000
 9521.09 0.9062915756000000
 9522.00 0.9074053649000000
 9522.90 0.9084863275000000
 9523.81 0.9095181297000000
 9524.72 0.9105178235000000
 9525.62 0.9114851689000000
 9526.53 0.9124194040000000
 9527.44 0.9133158802000000
 9528.35 0.9141717281000000
 9529.25 0.9149881730000000
 9530.16 0.9157700849000000
 9531.07 0.9165432037000000
 9531.98 0.9173349136000000
 9532.89 0.9181605517000000
 9533.80 0.9190170454000000
 9534.71 0.9198964504000000
 9535.62 0.9208150871000000
 9536.52 0.9217685346000000
 9537.43 0.9227507124000000
 9538.34 0.9237554116000000
 9539.25 0.9247770611000000
 9540.16 0.9258070933000000
 9541.07 0.9268346199000000
 9541.98 0.9278359131000000
 9542.90 0.9288088524000000
 9543.81 0.9297464764000000
 9544.72 0.9306311294000000
 9545.63 0.9314571095000000
 9546.54 0.9322184832000000
 9547.45 0.9329193473000000
 9548.36 0.9335627944000000
 9549.27 0.9341509836000000
 9550.19 0.9346854532000000
 9551.10 0.9351727984000000
 9552.01 0.9356184972000000
 9552.92 0.9360294305000000
 9553.84 0.9364132739000000
 9554.75 0.9367799328999999
 9555.66 0.9371303904000000
 9556.57 0.9374456238000000
 9557.49 0.9377396099999999
 9558.40 0.9380183049000000
 9559.32 0.9382761586000000
 9560.23 0.9385122065000000
 9561.14 0.9387171885000000
 9562.06 0.9389038412000000
 9562.97 0.9390727567000000
 9563.89 0.9392313951000000
 9564.80 0.9393873274000000
 9565.72 0.9395209417000000
 9566.63 0.9396062444000000
 9567.55 0.9396241949000000
 9568.46 0.9395970165999999
 9569.38 0.9395570210999999
 9570.29 0.9394927156000000
 9571.21 0.9394092052000000
 9572.13 0.9393034534000000
 9573.04 0.9391733197000000
 9573.96 0.9390155553000000
 9574.88 0.9388452681000000
 9575.79 0.9386766623000000
 9576.71 0.9385008156000000
 9577.63 0.9383255405000001
 9578.54 0.9381492624000000
 9579.46 0.9379582996000000
 9580.38 0.9377346687000000
 9581.30 0.9375027010000000
 9582.22 0.9373141467000000
 9583.13 0.9371563383000000
 9584.05 0.9370475398000000
 9584.97 0.9369662824000000
 9585.89 0.9369280624000000
 9586.81 0.9369323072000000
 9587.73 0.9369533637000000
 9588.65 0.9369912339000001
 9589.57 0.9370296234000000
 9590.49 0.9370557199000000
 9591.41 0.9370616399000000
 9592.33 0.9370497538000000
 9593.25 0.9369889286000000
 9594.17 0.9368813321000000
 9595.09 0.9367220207000000
 9596.01 0.9365047693000000
 9596.93 0.9362302145000000
 9597.85 0.9359150278000000
 9598.77 0.9355636787000000
 9599.69 0.9351799457000000
 9600.61 0.9347756371000000
 9601.54 0.9343724318000000
 9602.46 0.9339787486000000
 9603.38 0.9336117258000000
 9604.30 0.9332839444000000
 9605.23 0.9330007384000000
 9606.15 0.9327747806000000
 9607.07 0.9325989935000000
 9607.99 0.9324952709000000
 9608.92 0.9324368200000001
 9609.84 0.9324237280000000
 9610.76 0.9324543407000000
 9611.69 0.9325383867000000
 9612.61 0.9326717534000000
 9613.54 0.9328466389000000
 9614.46 0.9330601557000000
 9615.38 0.9333382839000000
 9616.31 0.9336885928000001
 9617.23 0.9340602809000000
 9618.16 0.9343911692000000
 9619.08 0.9346479806000000
 9620.01 0.9348736689000000
 9620.94 0.9351033877000000
 9621.86 0.9353652442000000
 9622.79 0.9356567109000000
 9623.71 0.9359894520000001
 9624.64 0.9363568479000000
 9625.57 0.9367619140000000
 9626.49 0.9372009483000000
 9627.42 0.9376730180000000
 9628.35 0.9381714474000000
 9629.27 0.9386955885000000
 9630.20 0.9392356339000000
 9631.13 0.9397893181000000
 9632.06 0.9403440215000000
 9632.98 0.9409011334000000
 9633.91 0.9414357470000000
 9634.84 0.9419457352000000
 9635.77 0.9424343870000000
 9636.70 0.9428970740000000
 9637.63 0.9433366871000000
 9638.55 0.9437629227000000
 9639.48 0.9441809780000000
 9640.41 0.9445982912999999
 9641.34 0.9450282174000000
 9642.27 0.9454812848000000
 9643.20 0.9459570495000000
 9644.13 0.9464753712000000
 9645.06 0.9470306874000000
 9645.99 0.9476417999000000
 9646.92 0.9483048637000000
 9647.85 0.9490196415000000
 9648.78 0.9497865739000000
 9649.72 0.9505964028000000
 9650.65 0.9514416650000000
 9651.58 0.9523154266000000
 9652.51 0.9532099523000001
 9653.44 0.9541123351000000
 9654.37 0.9550088833000000
 9655.31 0.9558901104999999
 9656.24 0.9567409733000000
 9657.17 0.9575643149000000
 9658.10 0.9583717986000000
 9659.04 0.9591251835000000
 9659.97 0.9598530564000000
 9660.90 0.9605490351000000
 9661.84 0.9612241470000000
 9662.77 0.9618723704000000
 9663.70 0.9625004635000000
 9664.64 0.9631076880000000
 9665.57 0.9636994179000000
 9666.51 0.9642895629000000
 9667.44 0.9648817942000000
 9668.37 0.9654813915000000
 9669.31 0.9661023714000000
 9670.24 0.9667279353000000
 9671.18 0.9673871642000000
 9672.12 0.9680968310000000
 9673.05 0.9688527652000000
 9673.99 0.9696555890000000
 9674.92 0.9704958299999999
 9675.86 0.9713670215000000
 9676.80 0.9722143944000000
 9677.73 0.9730133206000000
 9678.67 0.9737925297000000
 9679.61 0.9745644939000000
 9680.54 0.9753339356000000
 9681.48 0.9760796075000000
 9682.42 0.9767664772000000
 9683.35 0.9773812246000000
 9684.29 0.9779252328000000
 9685.23 0.9783914864000000
 9686.17 0.9787898231000000
 9687.11 0.9791274308000000
 9688.04 0.9794084964999999
 9688.98 0.9796477903000000
 9689.92 0.9799017474000000
 9690.86 0.9801868536000000
 9691.80 0.9804995726000000
 9692.74 0.9808468135000000
 9693.68 0.9812541041000000
 9694.62 0.9817314064000000
 9695.56 0.9822839350000000
 9696.50 0.9829189935000000
 9697.44 0.9836320938000001
 9698.38 0.9844059166000000
 9699.32 0.9852415368000000
 9700.26 0.9861001796000000
 9701.20 0.9869646582000000
 9702.14 0.9878328449000000
 9703.09 0.9886745722000000
 9704.03 0.9894735529000001
 9704.97 0.9902062418000001
 9705.91 0.9908380751000000
 9706.85 0.9913834708000000
 9707.80 0.9918124489000000
 9708.74 0.9921261061000000
 9709.68 0.9923361263000000
 9710.62 0.9924572055000001
 9711.57 0.9924811635000000
 9712.51 0.9924663231999999
 9713.45 0.9924136052000000
 9714.40 0.9923643065000000
 9715.34 0.9923487768000000
 9716.28 0.9923718257000000
 9717.23 0.9924818857000000
 9718.17 0.9926706007000000
 9719.12 0.9929307480000000
 9720.06 0.9933084729000000
 9721.01 0.9938080914000000
 9721.95 0.9943827258000000
 9722.90 0.9950234652000000
 9723.84 0.9957088454000000
 9724.79 0.9964127039000000
 9725.73 0.9971087698000000
 9726.68 0.9977755046000000
 9727.63 0.9983857710000000
 9728.57 0.9989168933000000
 9729.52 0.9993517074000000
 9730.47 0.9996886269000000
 9731.41 0.9998997871000000
 9732.36 0.9999921995000000
 9733.31 0.9999848296000000
 9734.25 0.9998443456000000
 9735.20 0.9996051163000000
 9736.15 0.9992886926000000
 9737.10 0.9988943434000001
 9738.05 0.9984451409000000
 9738.99 0.9979286046000000
 9739.94 0.9973599892000000
 9740.89 0.9967775589000000
 9741.84 0.9961893776000000
 9742.79 0.9955942204000000
 9743.74 0.9949901205000000
 9744.69 0.9943718769000000
 9745.64 0.9937222226000000
 9746.59 0.9930241143000000
 9747.54 0.9922618199000000
 9748.49 0.9914105336000000
 9749.44 0.9904482103000000
 9750.39 0.9893526988000000
 9751.34 0.9880958474000000
 9752.29 0.9866527698000001
 9753.24 0.9850206048000000
 9754.19 0.9831882391000000
 9755.15 0.9811573943000000
 9756.10 0.9789656052000000
 9757.05 0.9766097690000000
 9758.00 0.9740712813000000
 9758.95 0.9713347152000000
 9759.91 0.9685165000000000
 9760.86 0.9652704555000000
 9761.81 0.9618554372000000
 9762.76 0.9581998511000001
 9763.72 0.9543422164000001
 9764.67 0.9503331192000000
 9765.62 0.9461358843000000
 9766.58 0.9417621724000000
 9767.53 0.9371906867000001
 9768.49 0.9323956852000000
 9769.44 0.9274155881000000
 9770.40 0.9222667508000000
 9771.35 0.9169498001000000
 9772.31 0.9114309577000000
 9773.26 0.9056311311000000
 9774.22 0.8995809648000000
 9775.17 0.8934355956000000
 9776.13 0.8871045266000001
 9777.08 0.8805628341000000
 9778.04 0.8738988962999999
 9778.99 0.8668772371000000
 9779.95 0.8596028911000000
 9780.91 0.8521615500000000
 9781.86 0.8445059684000000
 9782.82 0.8366276008000000
 9783.78 0.8286277614000001
 9784.74 0.8202806275000000
 9785.69 0.8116711123000000
 9786.65 0.8028167272000000
 9787.61 0.7936756305000000
 9788.57 0.7842561773000000
 9789.53 0.7746617669000000
 9790.48 0.7647849605000000
 9791.44 0.7545762066000000
 9792.40 0.7441767766000000
 9793.36 0.7335568509000000
 9794.32 0.7226660766000000
 9795.28 0.7115741383000000
 9796.24 0.7002475878000000
 9797.20 0.6886391196000000
 9798.16 0.6769444918000000
 9799.12 0.6651580855000000
 9800.08 0.6532301122000000
 9801.04 0.6411827052000000
 9802.00 0.6290254310000000
 9802.96 0.6167487731000000
 9803.92 0.6044753609000000
 9804.88 0.5921810512000000
 9805.84 0.5798777186000000
 9806.81 0.5676089021000000
 9807.77 0.5553235465000000
 9808.73 0.5430519952000000
 9809.69 0.5308569179000000
 9810.65 0.5187203807000000
 9811.62 0.5066361039000000
 9812.58 0.4946386707000000
 9813.54 0.4826329805000000
 9814.51 0.4706588976000000
 9815.47 0.4587816635000000
 9816.43 0.4469859164000000
 9817.40 0.4353112865000000
 9818.36 0.4237346545000000
 9819.32 0.4121993352000000
 9820.29 0.4007511802000000
 9821.25 0.3894298757000000
 9822.22 0.3782434477000000
 9823.18 0.3671686329000000
 9824.15 0.3563216262000000
 9825.11 0.3454968136000000
 9826.08 0.3348771427000000
 9827.04 0.3244957923000000
 9828.01 0.3143056348000000
 9828.98 0.3043522706000000
 9829.94 0.2946070616000000
 9830.91 0.2850835102000000
 9831.87 0.2758139938000000
 9832.84 0.2667945394000000
 9833.81 0.2580321420000000
 9834.78 0.2495198118000000
 9835.74 0.2412681065000000
 9836.71 0.2332732340000000
 9837.68 0.2255231858000000
 9838.65 0.2180076245000000
 9839.61 0.2106981303000000
 9840.58 0.2035997726000000
 9841.55 0.1967119942000000
 9842.52 0.1900304538000000
 9843.49 0.1835421954000000
 9844.46 0.1772420227000000
 9845.43 0.1711292409000000
 9846.40 0.1651904071000000
 9847.37 0.1594098827000000
 9848.34 0.1538081932000000
 9849.31 0.1483975692000000
 9850.28 0.1431425385000000
 9851.25 0.1380516762000000
 9852.22 0.1331173538000000
 9853.19 0.1283536030000000
 9854.16 0.1237415119000000
 9855.13 0.1193017745000000
 9856.10 0.1150112407000000
 9857.07 0.1108984982000000
 9858.04 0.1069400623000000
 9859.02 0.1031337916000000
 9859.99 0.0994759789400000
 9860.96 0.0959570185300000
 9861.93 0.0925685012700000
 9862.91 0.0893163197800000
 9863.88 0.0861889627100000
 9864.85 0.0831771858600000
 9865.82 0.0802819099400000
 9866.80 0.0774948830700000
 9867.77 0.0748108903600000
 9868.75 0.0722246075000000
 9869.72 0.0697393101300000
 9870.69 0.0673416533300000
 9871.67 0.0650321236400000
 9872.64 0.0628031124200000
 9873.62 0.0606557205100000
 9874.59 0.0585827360400000
 9875.57 0.0565837776400000
 9876.54 0.0546572714400000
 9877.52 0.0527971972700000
 9878.49 0.0510002503000000
 9879.47 0.0492642892700000
 9880.45 0.0475897035300000
 9881.42 0.0459758494700000
 9882.40 0.0444228193000000
 9883.38 0.0429249654400000
 9884.35 0.0414849364200000
 9885.33 0.0401012873100000
 9886.31 0.0387678190600000
 9887.28 0.0374873697800000
 9888.26 0.0362543802000000
 9889.24 0.0350637148200000
 9890.22 0.0339196778400000
 9891.20 0.0328118868700000
 9892.18 0.0317472089000000
 9893.15 0.0307256026600000
 9894.13 0.0297670239500000
 9895.11 0.0288483984200000
 9896.09 0.0279613914400000
 9897.07 0.0271025292500000
 9898.05 0.0262712339000000
 9899.03 0.0254674413700000
 9900.01 0.0246893111900000
 9900.99 0.0239361353400000
 9901.97 0.0232070379300000
 9902.95 0.0225015389000000
 9903.93 0.0218187438500000
 9904.91 0.0211580857400000
 9905.89 0.0205198003000000
 9906.88 0.0199038966100000
 9907.86 0.0193106497700000
 9908.84 0.0187379862600000
 9909.82 0.0181833349300000
 9910.80 0.0176493419600000
 9911.79 0.0171316393700000
 9912.77 0.0166348723400000
 9913.75 0.0161528538400000
 9914.73 0.0156877659900000
 9915.72 0.0152373392600000
 9916.70 0.0148016893200000
 9917.68 0.0143806053600000
 9918.67 0.0139731487400000
 9919.65 0.0135781382800000
 9920.63 0.0131952567200000
 9921.62 0.0128241013200000
 9922.60 0.0124637730600000
 9923.59 0.0121138747600000
 9924.57 0.0117736114100000
 9925.56 0.0114421980300000
 9926.54 0.0111196893000000
 9927.53 0.0108058206500000
 9928.51 0.0105012009800000
 9929.50 0.0102078649100000
 9930.49 0.0099280872200000
 9931.47 0.0096586411800000
 9932.46 0.0093966395350000
 9933.45 0.0091427315320000
 9934.43 0.0088969831970000
 9935.42 0.0086593025860000
 9936.41 0.0084298712800000
 9937.39 0.0082083739780000
 9938.38 0.0079950714360000
 9939.37 0.0077895452020000
 9940.36 0.0075922928140000
 9941.35 0.0074023833840000
 9942.33 0.0072193165130000
 9943.32 0.0070430674610000
 9944.31 0.0068732865580000
 9945.30 0.0067094760440000
 9946.29 0.0065514607160000
 9947.28 0.0063984898050000
 9948.27 0.0062510435140000
 9949.26 0.0061082827310000
 9950.25 0.0059699943500000
 9951.24 0.0058358313310000
 9952.23 0.0057057655440000
 9953.22 0.0055794600250000
 9954.21 0.0054566685180000
 9955.20 0.0053373856430000
 9956.19 0.0052215791720000
 9957.18 0.0051091996340000
 9958.18 0.0050003779410000
 9959.17 0.0048947211320000
 9960.16 0.0047925429090000
 9961.15 0.0046935497550000
 9962.14 0.0045979371500000
 9963.14 0.0045053614260000
 9964.13 0.0044156065310000
 9965.12 0.0043283808580000
 9966.12 0.0042440882960000
 9967.11 0.0041620424690000
 9968.10 0.0040820344770000
 9969.10 0.0040038426400000
 9970.09 0.0039270257130000
 9971.08 0.0038515948060000
 9972.08 0.0037772297640000
 9973.07 0.0037038065660000
 9974.07 0.0036313434520000
 9975.06 0.0035596053800000
 9976.06 0.0034885361900000
 9977.05 0.0034185065260000
 9978.05 0.0033496249500000
 9979.04 0.0032819535600000
 9980.04 0.0032158289410000
 9981.04 0.0031512148810000
 9982.03 0.0030884056770000
 9983.03 0.0030274247740000
 9984.03 0.0029687444020000
 9985.02 0.0029122552050000
 9986.02 0.0028579859440000
 9987.02 0.0028059581540000
 9988.01 0.0027562846660000
 9989.01 0.0027086544780000
 9990.01 0.0026627395850000
 9991.01 0.0026185306530000
 9992.01 0.0025756674220000
 9993.00 0.0025338215650000
 9994.00 0.0024928883120000
 9995.00 0.0024524250120000
 9996.00 0.0024123495270000
 9997.00 0.0023724006340000
 9998.00 0.0023325639600000
 9999.00 0.0022927314250000
10000.00 0.0022529101650000
10001.00 0.0022130905880000
10002.00 0.0021736053500000
10003.00 0.0021345748620000
10004.00 0.0020961112960000
10005.00 0.0020587761770000
10006.00 0.0020226773340000
10007.00 0.0019881598090000
10008.01 0.0019553288840000
10009.01 0.0019244206730000
10010.01 0.0018956446970000
10011.01 0.0018689031080000
10012.01 0.0018442877370000
10013.02 0.0018220339940000
10014.02 0.0018016842590000
10015.02 0.0017831268220000
10016.03 0.0017661362820000
10017.03 0.0017503814180000
10018.03 0.0017357530150000
10019.04 0.0017217909180000
10020.04 0.0017080547800000
10021.04 0.0016944327110000
10022.05 0.0016805814570000
10023.05 0.0016662777420000
10024.06 0.0016512934700000
10025.06 0.0016355144480000
10026.07 0.0016187983150000
10027.07 0.0015992783220000
10028.08 0.0014069547600000
10029.08 0.0009331578165000
