# HIMAWARI8 relative spectral response function for band 16
# (see http://www.data.jma.go.jp/mscweb/en/himawari89/space_segment/spsg_ahi.html#band)
# converted from 
# http://www.data.jma.go.jp/mscweb/en/himawari89/space_segment/srf_201309/AHI-08_SpectralResponsivity.zip
# http://www.data.jma.go.jp/mscweb/en/himawari89/space_segment/srf_201310/AHI-09_SpectralResponsivity.zip
# 
# LAMBDA   RSR
# 
12721.03 0.0009545370000000
12722.65 0.0010990020000000
12724.27 0.0011885350000000
12725.88 0.0012140690000000
12727.50 0.0012408860000000
12729.12 0.0012685600000000
12730.74 0.0012968310000000
12732.37 0.0013261450000000
12733.99 0.0013563440000000
12735.61 0.0013874240000000
12737.23 0.0014193900000000
12738.85 0.0014522650000000
12740.48 0.0014858490000000
12742.10 0.0015200890000000
12743.72 0.0015551780000000
12745.35 0.0015903930000000
12746.97 0.0016262660000000
12748.60 0.0016626500000000
12750.22 0.0016993290000000
12751.85 0.0017367320000000
12753.48 0.0017750850000000
12755.10 0.0018144230000000
12756.73 0.0018554660000000
12758.36 0.0018989020000000
12759.98 0.0019439830000000
12761.61 0.0019930880000000
12763.24 0.0020452640000000
12764.87 0.0021009280000000
12766.50 0.0021621750000000
12768.13 0.0022267880000000
12769.76 0.0022972320000000
12771.39 0.0023726890000000
12773.02 0.0024524980000000
12774.66 0.0025387180000000
12776.29 0.0026291330000000
12777.92 0.0027244460000000
12779.55 0.0028245730000000
12781.19 0.0029285040000000
12782.82 0.0030359760000000
12784.45 0.0031473410000000
12786.09 0.0032612080000000
12787.72 0.0033773320000000
12789.36 0.0034963330000000
12791.00 0.0036160770000000
12792.63 0.0037390420000000
12794.27 0.0038631240000000
12795.91 0.0039889000000000
12797.54 0.0041176570000000
12799.18 0.0042480610000000
12800.82 0.0043816650000000
12802.46 0.0045185250000000
12804.10 0.0046588040000000
12805.74 0.0048033150000000
12807.38 0.0049520590000000
12809.02 0.0051055940000000
12810.66 0.0052645710000000
12812.30 0.0054290770000000
12813.94 0.0055994130000000
12815.58 0.0057764520000000
12817.23 0.0059597030000000
12818.87 0.0061497810000000
12820.51 0.0063471870000000
12822.16 0.0065518450000000
12823.80 0.0067652110000000
12825.45 0.0069857960000000
12827.09 0.0072152670000000
12828.74 0.0074541040000000
12830.38 0.0077017950000000
12832.03 0.0079611850000000
12833.68 0.0082310630000000
12835.32 0.0085137930000000
12836.97 0.0088110550000000
12838.62 0.0091197630000000
12840.27 0.0094464970000000
12841.92 0.0097878820000000
12843.57 0.0101507700000000
12845.22 0.0105381080000000
12846.87 0.0109430430000000
12848.52 0.0113716800000000
12850.17 0.0118207600000000
12851.82 0.0122929410000000
12853.47 0.0127901740000000
12855.12 0.0133103080000000
12856.78 0.0138571570000000
12858.43 0.0144293480000000
12860.08 0.0150293520000000
12861.74 0.0156590710000000
12863.39 0.0163155040000000
12865.05 0.0170033730000000
12866.70 0.0177220450000000
12868.36 0.0184750070000000
12870.01 0.0192645760000000
12871.67 0.0200867880000000
12873.33 0.0209320890000000
12874.98 0.0218116710000000
12876.64 0.0227324820000000
12878.30 0.0236979040000000
12879.96 0.0247098430000000
12881.62 0.0257711530000000
12883.28 0.0268811730000000
12884.94 0.0280468490000000
12886.60 0.0292708910000000
12888.26 0.0305599420000000
12889.92 0.0319358610000000
12891.58 0.0333831290000000
12893.24 0.0349075430000000
12894.91 0.0365164160000000
12896.57 0.0382073630000000
12898.23 0.0399914920000000
12899.90 0.0418316820000000
12901.56 0.0437460080000000
12903.23 0.0457630160000000
12904.89 0.0478755940000000
12906.56 0.0501053040000000
12908.22 0.0524532240000000
12909.89 0.0549195070000000
12911.56 0.0575183990000000
12913.22 0.0602416300000000
12914.89 0.0631216430000000
12916.56 0.0661545210000000
12918.23 0.0693410750000000
12919.90 0.0726926440000000
12921.57 0.0761983810000000
12923.24 0.0798737060000000
12924.91 0.0837223000000000
12926.58 0.0877394000000000
12928.25 0.0919501790000000
12929.92 0.0963438230000000
12931.59 0.1009300000000000
12933.26 0.1057160040000000
12934.94 0.1107114050000000
12936.61 0.1159115490000000
12938.28 0.1213353220000000
12939.96 0.1269910900000000
12941.63 0.1328697870000000
12943.31 0.1389922510000000
12944.98 0.1453455390000000
12946.66 0.1519222910000000
12948.34 0.1587508550000000
12950.01 0.1658235180000000
12951.69 0.1731188890000000
12953.37 0.1806680790000000
12955.05 0.1884426960000000
12956.72 0.1964245870000000
12958.40 0.2046410360000000
12960.08 0.2131203180000000
12961.76 0.2218185170000000
12963.44 0.2307103340000000
12965.12 0.2398890540000000
12966.80 0.2492930100000000
12968.49 0.2589169350000000
12970.17 0.2688169520000000
12971.85 0.2789783800000000
12973.53 0.2894010380000000
12975.22 0.3000799180000000
12976.90 0.3110173440000000
12978.59 0.3221797390000000
12980.27 0.3335264920000000
12981.96 0.3451812950000000
12983.64 0.3570756790000000
12985.33 0.3691151860000000
12987.01 0.3814497950000000
12988.70 0.3939719610000000
12990.39 0.4065376980000000
12992.07 0.4192627260000000
12993.76 0.4322785730000000
12995.45 0.4452932430000000
12997.14 0.4582886620000000
12998.83 0.4715450990000000
13000.52 0.4848123800000000
13002.21 0.4979103230000000
13003.90 0.5111179280000000
13005.59 0.5245329870000000
13007.28 0.5377983930000000
13008.98 0.5508924180000000
13010.67 0.5641465940000000
13012.36 0.5774095690000000
13014.06 0.5903915170000000
13015.75 0.6033841400000000
13017.44 0.6164382230000000
13019.14 0.6293671840000000
13020.83 0.6420687859999999
13022.53 0.6547618020000000
13024.23 0.6674053430000000
13025.92 0.6798879430000000
13027.62 0.6921645360000001
13029.32 0.7043717930000000
13031.01 0.7165177160000000
13032.71 0.7284935840000000
13034.41 0.7402346960000000
13036.11 0.7518882430000000
13037.81 0.7634498130000000
13039.51 0.7748061600000000
13041.21 0.7859052510000000
13042.91 0.7969062880000000
13044.61 0.8078570819999999
13046.31 0.8184351810000000
13048.02 0.8286941480000000
13049.72 0.8389202480000000
13051.42 0.8489312290000000
13053.13 0.8584759260000000
13054.83 0.8678651920000000
13056.53 0.8772990530000000
13058.24 0.8861049770000000
13059.95 0.8945219950000000
13061.65 0.9029970440000000
13063.36 0.9110670000000000
13065.06 0.9184883650000000
13066.77 0.9259255360000000
13068.48 0.9329768820000000
13070.19 0.9394280690000000
13071.90 0.9457998690000000
13073.60 0.9517254509999999
13075.31 0.9569557740000000
13077.02 0.9621423760000000
13078.73 0.9669375280000000
13080.44 0.9711045580000000
13082.16 0.9750862390000000
13083.87 0.9786061170000000
13085.58 0.9816663320000000
13087.29 0.9845723590000000
13089.01 0.9868985230000000
13090.72 0.9892289580000000
13092.43 0.9910804600000001
13094.15 0.9924641270000000
13095.86 0.9934332030000000
13097.58 0.9940362659999999
13099.29 0.9942350070000000
13101.01 0.9940929610000000
13102.73 0.9936430770000000
13104.44 0.9930812340000000
13106.16 0.9924952330000000
13107.88 0.9919439249999999
13109.60 0.9914683260000000
13111.32 0.9910834039999999
13113.03 0.9908009410000000
13114.75 0.9906231190000000
13116.47 0.9905810610000000
13118.19 0.9906335540000000
13119.92 0.9907653170000000
13121.64 0.9909279850000000
13123.36 0.9910616480000000
13125.08 0.9911546369999999
13126.80 0.9911531220000001
13128.53 0.9910324750000000
13130.25 0.9907689270000000
13131.98 0.9903155080000000
13133.70 0.9896962900000000
13135.43 0.9889066220000000
13137.15 0.9879953870000000
13138.88 0.9869996320000000
13140.60 0.9859761610000000
13142.33 0.9849655230000000
13144.06 0.9840396650000000
13145.79 0.9832463740000000
13147.52 0.9826674530000000
13149.24 0.9823162220000000
13150.97 0.9822226710000000
13152.70 0.9823936630000000
13154.43 0.9828179690000000
13156.16 0.9834978720000001
13157.89 0.9843801510000000
13159.63 0.9854262420000000
13161.36 0.9865854270000000
13163.09 0.9877642590000000
13164.82 0.9889193900000000
13166.56 0.9899616140000000
13168.29 0.9908633710000000
13170.03 0.9915706120000000
13171.76 0.9920653790000000
13173.49 0.9923294790000000
13175.23 0.9923793829999999
13176.97 0.9922192359999999
13178.70 0.9919144470000000
13180.44 0.9915102609999999
13182.18 0.9910618150000000
13183.92 0.9906425250000001
13185.65 0.9902906800000000
13187.39 0.9900872320000000
13189.13 0.9900587020000000
13190.87 0.9902540410000000
13192.61 0.9906867250000000
13194.35 0.9913339930000000
13196.09 0.9922125520000000
13197.84 0.9932442510000000
13199.58 0.9944001290000000
13201.32 0.9956213890000000
13203.06 0.9968172350000000
13204.81 0.9979835270000000
13206.55 0.9988538350000000
13208.29 0.9995101100000000
13210.04 0.9999132310000000
13211.78 0.9999817330000000
13213.53 0.9996911500000000
13215.28 0.9990522390000000
13217.02 0.9981449470000000
13218.77 0.9969676710000001
13220.52 0.9955593330000000
13222.27 0.9939884520000000
13224.01 0.9922952010000000
13225.76 0.9905425080000000
13227.51 0.9887675970000001
13229.26 0.9870540320000000
13231.01 0.9854076970000000
13232.76 0.9839055540000000
13234.52 0.9825226950000000
13236.27 0.9813456420000000
13238.02 0.9803248660000000
13239.77 0.9794806890000000
13241.53 0.9787663650000000
13243.28 0.9781072020000000
13245.03 0.9775032080000000
13246.79 0.9768960719999999
13248.54 0.9762380620000000
13250.30 0.9755356880000000
13252.05 0.9746582640000000
13253.81 0.9736635740000000
13255.57 0.9724563290000000
13257.32 0.9710741590000000
13259.08 0.9695310850000000
13260.84 0.9677952690000000
13262.60 0.9660114390000000
13264.36 0.9640691000000000
13266.12 0.9621127590000000
13267.88 0.9601083400000000
13269.64 0.9581419640000000
13271.40 0.9562799950000000
13273.16 0.9545183640000000
13274.92 0.9529323620000000
13276.69 0.9515263230000000
13278.45 0.9503080560000000
13280.21 0.9493066470000000
13281.98 0.9484858850000000
13283.74 0.9478441310000000
13285.51 0.9473362620000000
13287.27 0.9469189320000000
13289.04 0.9465592250000000
13290.80 0.9462220830000000
13292.57 0.9458300900000000
13294.34 0.9454043590000000
13296.10 0.9448313720000000
13297.87 0.9441683210000000
13299.64 0.9433489840000000
13301.41 0.9423915970000000
13303.18 0.9413099160000000
13304.95 0.9400714850000000
13306.72 0.9387963690000000
13308.49 0.9374264860000000
13310.26 0.9360868340000000
13312.03 0.9347560660000001
13313.81 0.9334759419999999
13315.58 0.9323083850000000
13317.35 0.9312552390000000
13319.13 0.9303701020000000
13320.90 0.9296598590000000
13322.68 0.9290777770000000
13324.45 0.9286739760000000
13326.23 0.9283743050000000
13328.00 0.9282499990000000
13329.78 0.9282226080000000
13331.56 0.9283151690000000
13333.33 0.9284301890000000
13335.11 0.9285826530000000
13336.89 0.9287382360000001
13338.67 0.9288856820000000
13340.45 0.9290422590000000
13342.23 0.9291567610000000
13344.01 0.9292195300000000
13345.79 0.9292086300000000
13347.57 0.9291365730000000
13349.35 0.9290124170000000
13351.13 0.9288358170000000
13352.92 0.9286238780000000
13354.70 0.9283827660000000
13356.48 0.9281174490000000
13358.27 0.9278531410000000
13360.05 0.9275008070000000
13361.84 0.9270427270000000
13363.62 0.9265478850000000
13365.41 0.9260542910000000
13367.20 0.9255799280000000
13368.98 0.9250910010000000
13370.77 0.9246705830000000
13372.56 0.9242177640000000
13374.35 0.9238050240000000
13376.14 0.9234181760000000
13377.93 0.9230560050000000
13379.72 0.9227399490000000
13381.51 0.9224384680000000
13383.30 0.9221532790000000
13385.09 0.9218833450000000
13386.88 0.9215873440000000
13388.67 0.9213151720000000
13390.47 0.9209932120000000
13392.26 0.9206578630000000
13394.05 0.9202514389999999
13395.85 0.9197630490000001
13397.64 0.9192298310000000
13399.44 0.9185869910000000
13401.23 0.9179112790000000
13403.03 0.9171140000000000
13404.83 0.9162487050000000
13406.62 0.9153226610000000
13408.42 0.9143488630000000
13410.22 0.9133617800000000
13412.02 0.9123720500000000
13413.82 0.9114112940000000
13415.62 0.9105032190000000
13417.42 0.9096495280000000
13419.22 0.9088773230000000
13421.02 0.9082734160000000
13422.82 0.9077874810000000
13424.62 0.9073949230000000
13426.42 0.9070600049999999
13428.23 0.9067863620000000
13430.03 0.9065356130000000
13431.83 0.9063313340000000
13433.64 0.9061718020000000
13435.44 0.9059928910000000
13437.25 0.9057547730000000
13439.05 0.9054037830000000
13440.86 0.9049309390000000
13442.67 0.9043434290000000
13444.47 0.9036165380000000
13446.28 0.9027518410000001
13448.09 0.9017504010000000
13449.90 0.9006177300000000
13451.71 0.8993729890000000
13453.52 0.8980439569999999
13455.33 0.8966412700000000
13457.14 0.8951915000000000
13458.95 0.8936960970000000
13460.76 0.8922176260000000
13462.57 0.8907524570000001
13464.39 0.8893062550000000
13466.20 0.8878953490000000
13468.01 0.8865315650000000
13469.83 0.8851804810000000
13471.64 0.8838386550000000
13473.46 0.8825113600000000
13475.27 0.8815489200000000
13477.09 0.8792164370000000
13478.91 0.8765679020000000
13480.72 0.8738013510000000
13482.54 0.8708958220000000
13484.36 0.8677496590000000
13486.18 0.8645008140000000
13488.00 0.8609133530000000
13489.82 0.8570123580000000
13491.64 0.8530206110000000
13493.46 0.8487786070000000
13495.28 0.8442781310000000
13497.10 0.8394213600000000
13498.92 0.8343854620000000
13500.74 0.8291615440000000
13502.57 0.8236678220000000
13504.39 0.8178488870000000
13506.21 0.8118379790000000
13508.04 0.8056574700000000
13509.86 0.7992016480000000
13511.69 0.7923412290000000
13513.51 0.7853174670000000
13515.34 0.7781776830000000
13517.17 0.7708016920000000
13518.99 0.7630265730000000
13520.82 0.7550424350000000
13522.65 0.7468733690000000
13524.48 0.7385413230000000
13526.31 0.7299265610000000
13528.14 0.7210026500000000
13529.97 0.7118771820000001
13531.80 0.7026138760000000
13533.63 0.6931629830000000
13535.46 0.6834229920000000
13537.30 0.6734959510000000
13539.13 0.6634776510000000
13540.96 0.6532780700000000
13542.80 0.6428470490000000
13544.63 0.6322566790000000
13546.46 0.6216690170000000
13548.30 0.6109996260000000
13550.14 0.6000620380000000
13551.97 0.5889756300000000
13553.81 0.5778660329999999
13555.65 0.5667049570000000
13557.48 0.5553641830000000
13559.32 0.5438603500000000
13561.16 0.5323316710000000
13563.00 0.5208688010000000
13564.84 0.5091501570000000
13566.68 0.4972726860000000
13568.52 0.4855041770000000
13570.36 0.4737734350000000
13572.20 0.4617073490000000
13574.05 0.4496055390000000
13575.89 0.4377065780000000
13577.73 0.4257208580000000
13579.58 0.4135405510000000
13581.42 0.4015227830000000
13583.27 0.3896357830000000
13585.11 0.3775929370000000
13586.96 0.3656811170000000
13588.80 0.3539801350000000
13590.65 0.3422440510000000
13592.50 0.3305965840000000
13594.34 0.3192195780000000
13596.19 0.3079521110000000
13598.04 0.2967983520000000
13599.89 0.2859385060000000
13601.74 0.2752510930000000
13603.59 0.2647636000000000
13605.44 0.2545567080000000
13607.29 0.2446068560000000
13609.15 0.2348962500000000
13611.00 0.2254352630000000
13612.85 0.2162855400000000
13614.70 0.2073843400000000
13616.56 0.1987340480000000
13618.41 0.1903707290000000
13620.27 0.1822560750000000
13622.12 0.1743780220000000
13623.98 0.1667473090000000
13625.83 0.1593550410000000
13627.69 0.1522295090000000
13629.55 0.1453537040000000
13631.41 0.1387148490000000
13633.27 0.1323215290000000
13635.12 0.1261730140000000
13636.98 0.1202625620000000
13638.84 0.1145868470000000
13640.70 0.1091466730000000
13642.56 0.1039395960000000
13644.43 0.0989534300000000
13646.29 0.0941939110000000
13648.15 0.0896626380000000
13650.01 0.0853493590000000
13651.88 0.0812545830000000
13653.74 0.0773482890000000
13655.61 0.0736418040000000
13657.47 0.0701108450000000
13659.34 0.0667484940000000
13661.20 0.0635447670000000
13663.07 0.0604917170000000
13664.94 0.0575722240000000
13666.80 0.0547892090000000
13668.67 0.0521405790000000
13670.54 0.0496093280000000
13672.41 0.0471939250000000
13674.28 0.0448931100000000
13676.15 0.0427139350000000
13678.02 0.0406430550000000
13679.89 0.0386789310000000
13681.76 0.0368239920000000
13683.63 0.0350567830000000
13685.51 0.0333913780000000
13687.38 0.0318557290000000
13689.25 0.0304030820000000
13691.13 0.0290278310000000
13693.00 0.0277150000000000
13694.88 0.0264695390000000
13696.75 0.0252863760000000
13698.63 0.0241641050000000
13700.51 0.0231079620000000
13702.38 0.0220981380000000
13704.26 0.0211327440000000
13706.14 0.0202129420000000
13708.02 0.0193333710000000
13709.90 0.0184952080000000
13711.78 0.0176941680000000
13713.66 0.0169280800000000
13715.54 0.0161988910000000
13717.42 0.0155141500000000
13719.30 0.0148705780000000
13721.19 0.0142569450000000
13723.07 0.0136680140000000
13724.95 0.0131069120000000
13726.84 0.0125698030000000
13728.72 0.0120581550000000
13730.61 0.0115725610000000
13732.49 0.0111065340000000
13734.38 0.0106625670000000
13736.26 0.0102396290000000
13738.15 0.0098337400000000
13740.04 0.0094476750000000
13741.93 0.0090778340000000
13743.82 0.0087228230000000
13745.70 0.0083823690000000
13747.59 0.0080552650000000
13749.48 0.0077409600000000
13751.38 0.0074371580000000
13753.27 0.0071412920000000
13755.16 0.0068566240000000
13757.05 0.0065832100000000
13758.94 0.0063204200000000
13760.84 0.0060680230000000
13762.73 0.0058261140000000
13764.62 0.0055942980000000
13766.52 0.0053720390000000
13768.42 0.0051611000000000
13770.31 0.0049595620000000
13772.21 0.0047676610000000
13774.10 0.0045867320000000
13776.00 0.0044131370000000
13777.90 0.0042503820000000
13779.80 0.0040953560000000
13781.70 0.0039478510000000
13783.60 0.0038089290000000
13785.50 0.0036755200000000
13787.40 0.0035494270000000
13789.30 0.0034289990000000
13791.20 0.0033137280000000
13793.10 0.0032039930000000
13795.01 0.0030983440000000
13796.91 0.0029976450000000
13798.81 0.0029008640000000
13800.72 0.0028082930000000
13802.62 0.0027197220000000
13804.53 0.0026346480000000
13806.43 0.0025540950000000
13808.34 0.0024767560000000
13810.25 0.0024030180000000
13812.15 0.0023332130000000
13814.06 0.0022659790000000
13815.97 0.0022022160000000
13817.88 0.0021408390000000
13819.79 0.0020814520000000
13821.70 0.0020241820000000
13823.61 0.0019683100000000
13825.52 0.0019126820000000
13827.43 0.0018582710000000
13829.35 0.0018032760000000
13831.26 0.0017474450000000
13833.17 0.0016924610000000
13835.09 0.0016349020000000
13837.00 0.0015781050000000
13838.92 0.0015205290000000
13840.83 0.0014617470000000
13842.75 0.0014044700000000
13844.66 0.0013464730000000
13846.58 0.0012900150000000
13848.50 0.0012351890000000
13850.42 0.0011818570000000
13852.33 0.0011312790000000
13854.25 0.0010838870000000
13856.17 0.0010389870000000
13858.09 0.0009981090000000
