# HIMAWARI8 relative spectral response function for band 10
# (see http://www.data.jma.go.jp/mscweb/en/himawari89/space_segment/spsg_ahi.html#band)
# converted from 
# http://www.data.jma.go.jp/mscweb/en/himawari89/space_segment/srf_201309/AHI-08_SpectralResponsivity.zip
# http://www.data.jma.go.jp/mscweb/en/himawari89/space_segment/srf_201310/AHI-09_SpectralResponsivity.zip
# 
# LAMBDA   RSR
# 
 7157.68 0.0009231390000000
 7158.20 0.0010412150000000
 7158.71 0.0013430000000000
 7159.22 0.0014520580000000
 7159.73 0.0014707980000000
 7160.25 0.0014912660000000
 7160.76 0.0015142880000000
 7161.27 0.0015376930000000
 7161.78 0.0015613960000000
 7162.30 0.0015853270000000
 7162.81 0.0016094960000000
 7163.32 0.0016337150000000
 7163.84 0.0016579990000000
 7164.35 0.0016824550000000
 7164.86 0.0017071430000000
 7165.38 0.0017323190000000
 7165.89 0.0017580840000000
 7166.40 0.0017848190000000
 7166.92 0.0018126720000000
 7167.43 0.0018420990000000
 7167.94 0.0018732550000000
 7168.46 0.0019066650000000
 7168.97 0.0019420530000000
 7169.49 0.0019801280000000
 7170.00 0.0020207460000000
 7170.51 0.0020645000000000
 7171.03 0.0021111260000000
 7171.54 0.0021611570000000
 7172.06 0.0022136990000000
 7172.57 0.0022696940000000
 7173.09 0.0023279770000000
 7173.60 0.0023891580000000
 7174.12 0.0024527150000000
 7174.63 0.0025187350000000
 7175.15 0.0025869120000000
 7175.66 0.0026572610000000
 7176.18 0.0027296060000000
 7176.69 0.0028039830000000
 7177.21 0.0028803090000000
 7177.72 0.0029586340000000
 7178.24 0.0030390570000000
 7178.75 0.0031216600000000
 7179.27 0.0032068370000000
 7179.78 0.0032946910000000
 7180.30 0.0033852540000000
 7180.81 0.0034790240000000
 7181.33 0.0035766120000000
 7181.84 0.0036772810000000
 7182.36 0.0037821310000000
 7182.88 0.0038908350000000
 7183.39 0.0040038370000000
 7183.91 0.0041213630000000
 7184.42 0.0042437220000000
 7184.94 0.0043703930000000
 7185.46 0.0045020560000000
 7185.97 0.0046387080000000
 7186.49 0.0047803870000000
 7187.01 0.0049273560000000
 7187.52 0.0050798160000000
 7188.04 0.0052380630000000
 7188.56 0.0054023570000000
 7189.07 0.0055731780000000
 7189.59 0.0057509740000000
 7190.11 0.0059362170000000
 7190.62 0.0061295520000000
 7191.14 0.0063308980000000
 7191.66 0.0065417500000000
 7192.17 0.0067615460000000
 7192.69 0.0069916960000000
 7193.21 0.0072330620000000
 7193.73 0.0074853270000000
 7194.24 0.0077489890000000
 7194.76 0.0080253290000000
 7195.28 0.0083146260000000
 7195.80 0.0086154840000000
 7196.32 0.0089303360000000
 7196.83 0.0092600420000000
 7197.35 0.0096073300000000
 7197.87 0.0099723520000000
 7198.39 0.0103522460000000
 7198.91 0.0107482920000000
 7199.42 0.0111603770000000
 7199.94 0.0115899410000000
 7200.46 0.0120386590000000
 7200.98 0.0125071090000000
 7201.50 0.0129957710000000
 7202.02 0.0135060240000000
 7202.54 0.0140410320000000
 7203.05 0.0145960250000000
 7203.57 0.0151814100000000
 7204.09 0.0157886710000000
 7204.61 0.0164270110000000
 7205.13 0.0170907090000000
 7205.65 0.0177844520000000
 7206.17 0.0185070830000000
 7206.69 0.0192716640000000
 7207.21 0.0200772330000000
 7207.73 0.0209281250000000
 7208.25 0.0218144780000000
 7208.77 0.0227381060000000
 7209.29 0.0237024730000000
 7209.81 0.0247100810000000
 7210.33 0.0257607660000000
 7210.85 0.0268578140000000
 7211.37 0.0280075110000000
 7211.89 0.0292092150000000
 7212.41 0.0304771540000000
 7212.93 0.0318059840000000
 7213.45 0.0332017690000000
 7213.97 0.0346559110000000
 7214.49 0.0361734540000000
 7215.01 0.0377647770000000
 7215.53 0.0394443640000000
 7216.05 0.0412044540000000
 7216.57 0.0430618380000000
 7217.09 0.0449951300000000
 7217.61 0.0470315100000000
 7218.13 0.0491732160000000
 7218.65 0.0514223620000000
 7219.17 0.0537796230000000
 7219.70 0.0562579900000000
 7220.22 0.0588491060000000
 7220.74 0.0615594510000000
 7221.26 0.0643944960000000
 7221.78 0.0673607260000000
 7222.30 0.0704418310000000
 7222.82 0.0736490100000000
 7223.35 0.0770016370000000
 7223.87 0.0804962990000000
 7224.39 0.0841322840000000
 7224.91 0.0879096640000000
 7225.43 0.0918228250000000
 7225.96 0.0958587530000000
 7226.48 0.1000523430000000
 7227.00 0.1043559050000000
 7227.52 0.1088252260000000
 7228.04 0.1134527560000000
 7228.57 0.1182570270000000
 7229.09 0.1231893730000000
 7229.61 0.1283094450000000
 7230.14 0.1335744070000000
 7230.66 0.1390014340000000
 7231.18 0.1445954070000000
 7231.70 0.1503685870000000
 7232.23 0.1563264790000000
 7232.75 0.1625158210000000
 7233.27 0.1688504030000000
 7233.80 0.1753164150000000
 7234.32 0.1818818440000000
 7234.84 0.1885640470000000
 7235.37 0.1954593890000000
 7235.89 0.2025484240000000
 7236.41 0.2097898090000000
 7236.94 0.2171665810000000
 7237.46 0.2246436040000000
 7237.98 0.2322384980000000
 7238.51 0.2399624980000000
 7239.03 0.2478052830000000
 7239.56 0.2558568620000000
 7240.08 0.2640122480000000
 7240.61 0.2722387500000000
 7241.13 0.2805543530000000
 7241.65 0.2889486920000000
 7242.18 0.2974534010000000
 7242.70 0.3061104780000000
 7243.23 0.3148384110000000
 7243.75 0.3236147840000000
 7244.28 0.3324884360000000
 7244.80 0.3414606580000000
 7245.33 0.3505267590000000
 7245.85 0.3596827660000000
 7246.38 0.3688934410000000
 7246.90 0.3781701970000000
 7247.43 0.3875419110000000
 7247.95 0.3969833010000000
 7248.48 0.4064536890000000
 7249.00 0.4159721020000000
 7249.53 0.4255670330000000
 7250.05 0.4352074950000000
 7250.58 0.4448916270000000
 7251.11 0.4546190180000000
 7251.63 0.4644101130000000
 7252.16 0.4742247260000000
 7252.68 0.4840673250000000
 7253.21 0.4939317810000000
 7253.74 0.5038157960000000
 7254.26 0.5137264490000000
 7254.79 0.5236638540000000
 7255.31 0.5336208609999999
 7255.84 0.5435947790000000
 7256.37 0.5535638859999999
 7256.89 0.5635303100000000
 7257.42 0.5734964170000000
 7257.95 0.5834511270000000
 7258.47 0.5933671750000000
 7259.00 0.6032611620000000
 7259.53 0.6131472019999999
 7260.06 0.6230188450000000
 7260.58 0.6328626080000000
 7261.11 0.6426941590000000
 7261.64 0.6525424270000000
 7262.16 0.6623186830000000
 7262.69 0.6719932350000000
 7263.22 0.6816378460000000
 7263.75 0.6912582810000000
 7264.27 0.7007531510000000
 7264.80 0.7101437720000000
 7265.33 0.7195175470000000
 7265.86 0.7288617520000000
 7266.39 0.7381351220000000
 7266.91 0.7473320100000000
 7267.44 0.7564260540000000
 7267.97 0.7654017640000000
 7268.50 0.7742123410000000
 7269.03 0.7828944730000000
 7269.56 0.7914729730000000
 7270.08 0.7999415040000000
 7270.61 0.8082974500000000
 7271.14 0.8165602770000000
 7271.67 0.8247298490000000
 7272.20 0.8327889170000000
 7272.73 0.8407577910000000
 7273.26 0.8485160480000000
 7273.79 0.8560812610000000
 7274.31 0.8635426890000000
 7274.84 0.8708270530000000
 7275.37 0.8777351530000000
 7275.90 0.8842685090000000
 7276.43 0.8902236150000000
 7276.96 0.8957934270000000
 7277.49 0.9011043670000000
 7278.02 0.9061333110000001
 7278.55 0.9108903480000000
 7279.08 0.9153623760000000
 7279.61 0.9195602100000000
 7280.14 0.9234615670000000
 7280.67 0.9270813800000000
 7281.20 0.9304238660000000
 7281.73 0.9335170510000000
 7282.26 0.9363363460000000
 7282.79 0.9389139290000000
 7283.32 0.9413140970000000
 7283.85 0.9435498270000000
 7284.38 0.9456841850000000
 7284.91 0.9477597650000000
 7285.44 0.9498193000000000
 7285.97 0.9518661370000000
 7286.51 0.9539269880000000
 7287.04 0.9559466530000000
 7287.57 0.9579042340000000
 7288.10 0.9597221390000000
 7288.63 0.9613682790000000
 7289.16 0.9627448260000000
 7289.69 0.9638916910000001
 7290.22 0.9647301160000000
 7290.76 0.9653611620000000
 7291.29 0.9656734470000000
 7291.82 0.9658453550000000
 7292.35 0.9658206170000000
 7292.88 0.9656750440000000
 7293.41 0.9654847540000000
 7293.95 0.9652627090000000
 7294.48 0.9650902180000001
 7295.01 0.9650001030000001
 7295.54 0.9651126719999999
 7296.07 0.9653050180000000
 7296.61 0.9658213850000000
 7297.14 0.9665900310000000
 7297.67 0.9677089920000000
 7298.20 0.9690983890000000
 7298.74 0.9708308550000000
 7299.27 0.9728105560000000
 7299.80 0.9750006550000000
 7300.34 0.9773462979999999
 7300.87 0.9798399440000000
 7301.40 0.9823784770000000
 7301.94 0.9849392570000000
 7302.47 0.9874366919999999
 7303.00 0.9898412840000000
 7303.53 0.9920461420000000
 7304.07 0.9940164240000000
 7304.60 0.9957504740000001
 7305.14 0.9971828290000000
 7305.67 0.9983535980000000
 7306.20 0.9991933930000000
 7306.74 0.9997567910000000
 7307.27 0.9999629310000000
 7307.80 0.9999975420000000
 7308.34 0.9998923510000000
 7308.87 0.9994770440000000
 7309.41 0.9989935440000000
 7309.94 0.9983985020000000
 7310.48 0.9977782280000000
 7311.01 0.9971547300000000
 7311.54 0.9965581660000000
 7312.08 0.9960583280000000
 7312.61 0.9956624980000000
 7313.15 0.9954118030000000
 7313.68 0.9952689350000000
 7314.22 0.9952752170000000
 7314.75 0.9953833080000000
 7315.29 0.9955298510000000
 7315.82 0.9957101100000000
 7316.36 0.9957681380000000
 7316.89 0.9957913580000000
 7317.43 0.9955060580000000
 7317.97 0.9947475220000001
 7318.50 0.9938005710000000
 7319.04 0.9925881510000000
 7319.57 0.9911621030000000
 7320.11 0.9895369480000000
 7320.64 0.9876637100000000
 7321.18 0.9856131750000000
 7321.72 0.9833777470000000
 7322.25 0.9810537830000000
 7322.79 0.9786761940000001
 7323.32 0.9764785280000000
 7323.86 0.9744750930000000
 7324.40 0.9730221090000000
 7324.93 0.9720897360000000
 7325.47 0.9725918640000000
 7326.01 0.9735059150000001
 7326.54 0.9740744620000000
 7327.08 0.9744665769999999
 7327.62 0.9746967970000000
 7328.15 0.9748535189999999
 7328.69 0.9749722980000000
 7329.23 0.9750333220000000
 7329.77 0.9750668610000000
 7330.30 0.9750605190000000
 7330.84 0.9750006750000000
 7331.38 0.9749083570000000
 7331.92 0.9747822900000001
 7332.45 0.9746496920000000
 7332.99 0.9745231600000001
 7333.53 0.9744230380000000
 7334.07 0.9743579900000000
 7334.60 0.9743109690000000
 7335.14 0.9743043240000000
 7335.68 0.9743144969999999
 7336.22 0.9743427260000000
 7336.76 0.9744430750000000
 7337.30 0.9745987640000000
 7337.83 0.9748498580000000
 7338.37 0.9751521680000000
 7338.91 0.9755269820000000
 7339.45 0.9759767380000000
 7339.99 0.9765010800000000
 7340.53 0.9770809210000000
 7341.07 0.9777108260000000
 7341.60 0.9783815610000000
 7342.14 0.9790995090000000
 7342.68 0.9798815430000000
 7343.22 0.9806975800000000
 7343.76 0.9815487840000000
 7344.30 0.9823964070000000
 7344.84 0.9832356450000000
 7345.38 0.9840314680000000
 7345.92 0.9848033360000000
 7346.46 0.9855620320000000
 7347.00 0.9863016430000000
 7347.54 0.9870352200000000
 7348.08 0.9877388140000000
 7348.62 0.9884016370000001
 7349.16 0.9889718520000000
 7349.70 0.9894497930000000
 7350.24 0.9898382420000000
 7350.78 0.9901565260000000
 7351.32 0.9904299130000001
 7351.86 0.9906598450000000
 7352.40 0.9908147000000000
 7352.94 0.9909054320000000
 7353.48 0.9908933260000000
 7354.02 0.9908269070000000
 7354.56 0.9907015680000000
 7355.10 0.9905496300000000
 7355.65 0.9903604570000000
 7356.19 0.9901450590000000
 7356.73 0.9899056650000000
 7357.27 0.9896476910000001
 7357.81 0.9893696130000000
 7358.35 0.9890657160000000
 7358.89 0.9887381140000000
 7359.43 0.9883877190000000
 7359.98 0.9880185580000000
 7360.52 0.9876425710000000
 7361.06 0.9872480880000000
 7361.60 0.9868226760000000
 7362.14 0.9863732970000000
 7362.69 0.9858994840000000
 7363.23 0.9854072750000000
 7363.77 0.9848967670000000
 7364.31 0.9843731050000000
 7364.85 0.9838369790000000
 7365.40 0.9832955289999999
 7365.94 0.9827526190000000
 7366.48 0.9822114870000000
 7367.03 0.9816710170000000
 7367.57 0.9811303890000000
 7368.11 0.9805896430000000
 7368.65 0.9800485850000000
 7369.20 0.9795076320000000
 7369.74 0.9789671470000000
 7370.28 0.9784345420000000
 7370.83 0.9779156330000000
 7371.37 0.9774213420000000
 7371.91 0.9769127960000000
 7372.46 0.9762546510000000
 7373.00 0.9754958900000000
 7373.54 0.9746998840000000
 7374.09 0.9738949750000000
 7374.63 0.9731120519999999
 7375.18 0.9723603850000000
 7375.72 0.9716444180000000
 7376.26 0.9709658100000000
 7376.81 0.9703259910000001
 7377.35 0.9697264840000001
 7377.90 0.9691658710000000
 7378.44 0.9686413820000001
 7378.98 0.9681542690000000
 7379.53 0.9677140730000000
 7380.07 0.9673302090000000
 7380.62 0.9670041680000000
 7381.16 0.9667363630000000
 7381.71 0.9665231260000000
 7382.25 0.9664091020000000
 7382.80 0.9663334590000000
 7383.34 0.9663342610000000
 7383.89 0.9663931740000000
 7384.43 0.9665251670000000
 7384.98 0.9667158540000000
 7385.52 0.9669782770000001
 7386.07 0.9673078540000000
 7386.62 0.9677056979999999
 7387.16 0.9681653190000000
 7387.71 0.9686885880000000
 7388.25 0.9692705760000000
 7388.80 0.9699198130000000
 7389.34 0.9706178330000000
 7389.89 0.9713695950000000
 7390.44 0.9721819790000000
 7390.98 0.9730414979999999
 7391.53 0.9739452660000000
 7392.08 0.9748763570000000
 7392.62 0.9758247770000000
 7393.17 0.9767660780000000
 7393.72 0.9776888050000000
 7394.26 0.9785752070000000
 7394.81 0.9794366090000000
 7395.36 0.9802321540000000
 7395.90 0.9809583610000000
 7396.45 0.9815718130000000
 7397.00 0.9821119030000000
 7397.54 0.9825232130000000
 7398.09 0.9827410270000000
 7398.64 0.9827809440000000
 7399.19 0.9827561020000000
 7399.73 0.9823928260000000
 7400.28 0.9818568780000000
 7400.83 0.9810451940000000
 7401.38 0.9800332650000000
 7401.92 0.9787737540000000
 7402.47 0.9773171300000000
 7403.02 0.9757180090000001
 7403.57 0.9739952629999999
 7404.12 0.9721990800000000
 7404.66 0.9703607750000000
 7405.21 0.9684973660000000
 7405.76 0.9666120260000000
 7406.31 0.9646878080000000
 7406.86 0.9627257849999999
 7407.41 0.9606824550000000
 7407.96 0.9585718350000000
 7408.50 0.9563642840000000
 7409.05 0.9540707630000000
 7409.60 0.9516838680000000
 7410.15 0.9492101310000000
 7410.70 0.9466455290000000
 7411.25 0.9439778530000000
 7411.80 0.9412050530000000
 7412.35 0.9384592470000001
 7412.90 0.9357620100000000
 7413.45 0.9332636600000001
 7414.00 0.9307522910000000
 7414.55 0.9282893169999999
 7415.10 0.9238623820000000
 7415.65 0.9063664400000000
 7416.20 0.8925949020000000
 7416.75 0.8852566710000001
 7417.30 0.8784372020000000
 7417.85 0.8719033070000000
 7418.40 0.8650590760000000
 7418.95 0.8580493510000000
 7419.50 0.8509892780000000
 7420.05 0.8438378210000000
 7420.60 0.8365085330000001
 7421.15 0.8290987960000000
 7421.70 0.8216722520000000
 7422.25 0.8140661300000001
 7422.80 0.8062591900000000
 7423.35 0.7984087180000000
 7423.90 0.7904734220000000
 7424.46 0.7822789550000000
 7425.01 0.7739633870000000
 7425.56 0.7656995540000000
 7426.11 0.7573241110000000
 7426.66 0.7487085640000000
 7427.21 0.7400499960000000
 7427.76 0.7313867970000000
 7428.32 0.7225299900000000
 7428.87 0.7134983300000000
 7429.42 0.7044662980000000
 7429.97 0.6953487520000000
 7430.52 0.6859726380000000
 7431.08 0.6765053500000000
 7431.63 0.6670942610000000
 7432.18 0.6575237620000000
 7432.73 0.6477189660000000
 7433.29 0.6379083070000000
 7433.84 0.6280901670000000
 7434.39 0.6180827830000000
 7434.94 0.6079390840000000
 7435.50 0.5977799480000000
 7436.05 0.5875327470000000
 7436.60 0.5771249250000000
 7437.16 0.5666570130000000
 7437.71 0.5561477350000000
 7438.26 0.5455503070000000
 7438.82 0.5348690170000000
 7439.37 0.5241607460000000
 7439.92 0.5134145060000000
 7440.48 0.5026053430000000
 7441.03 0.4917606010000000
 7441.58 0.4808881430000000
 7442.14 0.4700057080000000
 7442.69 0.4591221350000000
 7443.25 0.4482399070000000
 7443.80 0.4373613930000000
 7444.35 0.4265087250000000
 7444.91 0.4156807600000000
 7445.46 0.4048845730000000
 7446.02 0.3941274700000000
 7446.57 0.3834167030000000
 7447.13 0.3727635620000000
 7447.68 0.3621759000000000
 7448.23 0.3516712770000000
 7448.79 0.3412523930000000
 7449.34 0.3309312160000000
 7449.90 0.3207213450000000
 7450.45 0.3106209580000000
 7451.01 0.3006180610000000
 7451.56 0.2907352300000000
 7452.12 0.2809828010000000
 7452.68 0.2713740550000000
 7453.23 0.2619300800000000
 7453.79 0.2526523120000000
 7454.34 0.2435401730000000
 7454.90 0.2346131890000000
 7455.45 0.2258736730000000
 7456.01 0.2173032870000000
 7456.57 0.2089243370000000
 7457.12 0.2007336080000000
 7457.68 0.1927380340000000
 7458.23 0.1849747860000000
 7458.79 0.1774430530000000
 7459.35 0.1701892910000000
 7459.90 0.1631872990000000
 7460.46 0.1563975570000000
 7461.02 0.1497916330000000
 7461.57 0.1434347870000000
 7462.13 0.1373102420000000
 7462.69 0.1314078000000000
 7463.24 0.1257298510000000
 7463.80 0.1202757090000000
 7464.36 0.1150433480000000
 7464.91 0.1100223980000000
 7465.47 0.1052186260000000
 7466.03 0.1006032680000000
 7466.59 0.0961854790000000
 7467.14 0.0919539280000000
 7467.70 0.0878848150000000
 7468.26 0.0839937190000000
 7468.82 0.0802764390000000
 7469.38 0.0767353590000000
 7469.93 0.0733471780000000
 7470.49 0.0700987910000000
 7471.05 0.0669933180000000
 7471.61 0.0640317520000000
 7472.17 0.0611898470000000
 7472.72 0.0584697290000000
 7473.28 0.0558711610000000
 7473.84 0.0533891840000000
 7474.40 0.0510283850000000
 7474.96 0.0487672260000000
 7475.52 0.0466216990000000
 7476.08 0.0445817450000000
 7476.64 0.0426419740000000
 7477.19 0.0408109020000000
 7477.75 0.0390857120000000
 7478.31 0.0374432400000000
 7478.87 0.0358752060000000
 7479.43 0.0343840640000000
 7479.99 0.0329530200000000
 7480.55 0.0315928340000000
 7481.11 0.0302961650000000
 7481.67 0.0290612000000000
 7482.23 0.0278805440000000
 7482.79 0.0267538700000000
 7483.35 0.0256777100000000
 7483.91 0.0246459410000000
 7484.47 0.0236649650000000
 7485.03 0.0227288020000000
 7485.59 0.0218380020000000
 7486.15 0.0209848660000000
 7486.71 0.0201782410000000
 7487.27 0.0194136250000000
 7487.83 0.0186881640000000
 7488.39 0.0179909740000000
 7488.95 0.0173216030000000
 7489.51 0.0166797380000000
 7490.08 0.0160652320000000
 7490.64 0.0154793070000000
 7491.20 0.0149147270000000
 7491.76 0.0143746530000000
 7492.32 0.0138564920000000
 7492.88 0.0133571080000000
 7493.44 0.0128768380000000
 7494.00 0.0124154060000000
 7494.57 0.0119723710000000
 7495.13 0.0115441050000000
 7495.69 0.0111325380000000
 7496.25 0.0107378180000000
 7496.81 0.0103573140000000
 7497.38 0.0099947750000000
 7497.94 0.0096477820000000
 7498.50 0.0093156690000000
 7499.06 0.0089974510000000
 7499.63 0.0086911560000000
 7500.19 0.0083964080000000
 7500.75 0.0081133050000000
 7501.31 0.0078414320000000
 7501.88 0.0075802530000000
 7502.44 0.0073299390000000
 7503.00 0.0070893670000000
 7503.56 0.0068591350000000
 7504.13 0.0066387010000000
 7504.69 0.0064277340000000
 7505.25 0.0062254640000000
 7505.82 0.0060317080000000
 7506.38 0.0058465110000000
 7506.94 0.0056692850000000
 7507.51 0.0054998920000000
 7508.07 0.0053369810000000
 7508.63 0.0051814480000000
 7509.20 0.0050325320000000
 7509.76 0.0048896450000000
 7510.33 0.0047526280000000
 7510.89 0.0046212160000000
 7511.45 0.0044955970000000
 7512.02 0.0043743700000000
 7512.58 0.0042582640000000
 7513.15 0.0041468300000000
 7513.71 0.0040398640000000
 7514.28 0.0039371390000000
 7514.84 0.0038383270000000
 7515.41 0.0037430090000000
 7515.97 0.0036510480000000
 7516.54 0.0035624610000000
 7517.10 0.0034766200000000
 7517.67 0.0033933780000000
 7518.23 0.0033124450000000
 7518.80 0.0032336880000000
 7519.36 0.0031568240000000
 7519.93 0.0030817610000000
 7520.49 0.0030084320000000
 7521.06 0.0029364540000000
 7521.62 0.0028659780000000
 7522.19 0.0027968710000000
 7522.76 0.0027293030000000
 7523.32 0.0026632760000000
 7523.89 0.0025988620000000
 7524.45 0.0025363960000000
 7525.02 0.0024758200000000
 7525.59 0.0024174350000000
 7526.15 0.0023609310000000
 7526.72 0.0023066420000000
 7527.29 0.0022546790000000
 7527.85 0.0022049690000000
 7528.42 0.0021575750000000
 7528.99 0.0021125900000000
 7529.55 0.0020699390000000
 7530.12 0.0020292720000000
 7530.69 0.0019906420000000
 7531.25 0.0019538570000000
 7531.82 0.0019187910000000
 7532.39 0.0018853840000000
 7532.96 0.0018534470000000
 7533.52 0.0018228230000000
 7534.09 0.0017934190000000
 7534.66 0.0017652290000000
 7535.23 0.0017380450000000
 7535.80 0.0017120530000000
 7536.36 0.0016873550000000
 7536.93 0.0016637490000000
 7537.50 0.0016414520000000
 7538.07 0.0016204640000000
 7538.64 0.0016008070000000
 7539.20 0.0015834310000000
 7539.77 0.0015692330000000
 7540.34 0.0014878350000000
 7540.91 0.0012691680000000
 7541.48 0.0010773160000000
 7542.05 0.0009625260000000
