# Extracted from file Polder2Spectrum.txt, available from http://smsc.cnes.fr/POLDER/GP_instrument.htm
# 	765	
# 	k=7	
704.00	0.0006	
704.50	0.0006	
705.00	0.0006	
705.50	0.0019	
706.00	0.0031	
706.50	0.0031	
707.00	0.0032	
707.50	0.0029	
708.00	0.0027	
708.50	0.0032	
709.00	0.0036	
709.50	0.0021	
710.00	0.0005	
710.50	0.0011	
711.00	0.0016	
711.50	0.0027	
712.00	0.0038	
712.50	0.0040	
713.00	0.0041	
713.50	0.0042	
714.00	0.0042	
714.50	0.0057	
715.00	0.0072	
715.50	0.0059	
716.00	0.0046	
716.50	0.0056	
717.00	0.0065	
717.50	0.0075	
718.00	0.0085	
718.50	0.0089	
719.00	0.0093	
719.50	0.0107	
720.00	0.0120	
720.50	0.0129	
721.00	0.0138	
721.50	0.0141	
722.00	0.0143	
722.50	0.0161	
723.00	0.0178	
723.50	0.0187	
724.00	0.0196	
724.50	0.0211	
725.00	0.0226	
725.50	0.0231	
726.00	0.0237	
726.50	0.0261	
727.00	0.0285	
727.50	0.0308	
728.00	0.0332	
728.50	0.0349	
729.00	0.0366	
729.50	0.0401	
730.00	0.0435	
730.50	0.0496	
731.00	0.0557	
731.50	0.0607	
732.00	0.0656	
732.50	0.0708	
733.00	0.0760	
733.50	0.0832	
734.00	0.0905	
734.50	0.0962	
735.00	0.1019	
735.50	0.1138	
736.00	0.1256	
736.50	0.1406	
737.00	0.1556	
737.50	0.1712	
738.00	0.1868	
738.50	0.2059	
739.00	0.2249	
739.50	0.2471	
740.00	0.2693	
740.50	0.2953	
741.00	0.3213	
741.50	0.3514	
742.00	0.3815	
742.50	0.4108	
743.00	0.4402	
743.50	0.4690	
744.00	0.4977	
744.50	0.5364	
745.00	0.5750	
745.50	0.6079	
746.00	0.6408	
746.50	0.6705	
747.00	0.7002	
747.50	0.7270	
748.00	0.7538	
748.50	0.7788	
749.00	0.8038	
749.50	0.8220	
750.00	0.8403	
750.50	0.8542	
751.00	0.8681	
751.50	0.8799	
752.00	0.8917	
752.50	0.9028	
753.00	0.9139	
753.50	0.9193	
754.00	0.9247	
754.50	0.9282	
755.00	0.9317	
755.50	0.9368	
756.00	0.9419	
756.50	0.9461	
757.00	0.9503	
757.50	0.9526	
758.00	0.9549	
758.50	0.9564	
759.00	0.9579	
759.50	0.9596	
760.00	0.9614	
760.50	0.9615	
761.00	0.9615	
761.50	0.9635	
762.00	0.9655	
762.50	0.9666	
763.00	0.9678	
763.50	0.9696	
764.00	0.9714	
764.50	0.9753	
765.00	0.9791	
765.50	0.9805	
766.00	0.9818	
766.50	0.9831	
767.00	0.9843	
767.50	0.9861	
768.00	0.9880	
768.50	0.9907	
769.00	0.9934	
769.50	0.9918	
770.00	0.9902	
770.50	0.9945	
771.00	0.9988	
771.50	0.9958	
772.00	0.9928	
772.50	0.9883	
773.00	0.9839	
773.50	0.9739	
774.00	0.9639	
774.50	0.9489	
775.00	0.9339	
775.50	0.9127	
776.00	0.8914	
776.50	0.8612	
777.00	0.8309	
777.50	0.7947	
778.00	0.7585	
778.50	0.7148	
779.00	0.6711	
779.50	0.6260	
780.00	0.5808	
780.50	0.5378	
781.00	0.4949	
781.50	0.4539	
782.00	0.4130	
782.50	0.3759	
783.00	0.3389	
783.50	0.3066	
784.00	0.2743	
784.50	0.2485	
785.00	0.2227	
785.50	0.2022	
786.00	0.1816	
786.50	0.1624	
787.00	0.1432	
787.50	0.1285	
788.00	0.1138	
788.50	0.1024	
789.00	0.0909	
789.50	0.0830	
790.00	0.0751	
790.50	0.0667	
791.00	0.0582	
791.50	0.0525	
792.00	0.0468	
792.50	0.0427	
793.00	0.0387	
793.50	0.0349	
794.00	0.0311	
794.50	0.0292	
795.00	0.0273	
795.50	0.0250	
796.00	0.0227	
796.50	0.0205	
797.00	0.0184	
797.50	0.0169	
798.00	0.0155	
798.50	0.0144	
799.00	0.0133	
799.50	0.0128	
800.00	0.0124	
800.50	0.0118	
801.00	0.0113	
801.50	0.0111	
802.00	0.0109	
802.50	0.0082	
803.00	0.0055	
803.50	0.0064	
804.00	0.0074	
804.50	0.0066	
805.00	0.0059	
805.50	0.0056	
806.00	0.0054	
806.50	0.0037	
807.00	0.0020	
807.50	0.0033	
808.00	0.0046	
808.50	0.0035	
809.00	0.0024	
809.50	0.0032	
810.00	0.0040	
810.50	0.0036	
811.00	0.0032	
811.50	0.0033	
812.00	0.0034	
812.50	0.0026	
813.00	0.0018	
813.50	0.0025	
814.00	0.0032	
814.50	0.0028	
815.00	0.0023	
815.50	0.0015	
816.00	0.0006	
816.50	0.0008	
817.00	0.0009	
817.50	0.0011	
818.00	0.0013	
818.50	0.0016	
819.00	0.0018	
819.50	0.0028	
820.00	0.0037	
820.50	0.0019	
821.00	0.0000	
821.50	0.0002	
822.00	0.0004	
