# Provided by ESA in 10/2012
# Important Notes:
# The data contained here correspond to the OLCI Spectral Model CDR derived in 2011.
# The data have been calculated for the camera 4, pointing nadir.
760.15  0.0006
760.16  0.0007
760.17  0.0007
760.18  0.0007
760.19  0.0008
760.20  0.0008
760.21  0.0008
760.22  0.0009
760.23  0.0009
760.24  0.0009
760.25  0.0010
760.26  0.0010
760.27  0.0011
760.28  0.0011
760.29  0.0012
760.30  0.0012
760.31  0.0013
760.32  0.0014
760.33  0.0014
760.34  0.0015
760.35  0.0015
760.36  0.0016
760.37  0.0017
760.38  0.0018
760.39  0.0018
760.40  0.0019
760.41  0.0020
760.42  0.0021
760.43  0.0021
760.44  0.0022
760.45  0.0023
760.46  0.0024
760.47  0.0025
760.48  0.0027
760.49  0.0028
760.50  0.0029
760.51  0.0030
760.52  0.0031
760.53  0.0032
760.54  0.0034
760.55  0.0035
760.56  0.0036
760.57  0.0038
760.58  0.0040
760.59  0.0041
760.60  0.0043
760.61  0.0045
760.62  0.0046
760.63  0.0048
760.64  0.0050
760.65  0.0051
760.66  0.0054
760.67  0.0056
760.68  0.0058
760.69  0.0061
760.70  0.0063
760.71  0.0065
760.72  0.0068
760.73  0.0070
760.74  0.0072
760.75  0.0075
760.76  0.0078
760.77  0.0081
760.78  0.0084
760.79  0.0088
760.80  0.0091
760.81  0.0094
760.82  0.0097
760.83  0.0101
760.84  0.0104
760.85  0.0107
760.86  0.0112
760.87  0.0116
760.88  0.0120
760.89  0.0125
760.90  0.0129
760.91  0.0134
760.92  0.0138
760.93  0.0143
760.94  0.0147
760.95  0.0151
760.96  0.0157
760.97  0.0163
760.98  0.0169
760.99  0.0175
761.00  0.0181
761.01  0.0187
761.02  0.0193
761.03  0.0199
761.04  0.0205
761.05  0.0211
761.06  0.0218
761.07  0.0226
761.08  0.0234
761.09  0.0242
761.10  0.0250
761.11  0.0257
761.12  0.0265
761.13  0.0273
761.14  0.0281
761.15  0.0289
761.16  0.0299
761.17  0.0309
761.18  0.0319
761.19  0.0329
761.20  0.0339
761.21  0.0349
761.22  0.0359
761.23  0.0369
761.24  0.0379
761.25  0.0389
761.26  0.0402
761.27  0.0415
761.28  0.0428
761.29  0.0441
761.30  0.0453
761.31  0.0466
761.32  0.0479
761.33  0.0492
761.34  0.0505
761.35  0.0517
761.36  0.0533
761.37  0.0549
761.38  0.0565
761.39  0.0581
761.40  0.0603
761.41  0.0620
761.42  0.0636
761.43  0.0652
761.44  0.0669
761.45  0.0685
761.46  0.0705
761.47  0.0725
761.48  0.0745
761.49  0.0765
761.50  0.0785
761.51  0.0805
761.52  0.0825
761.53  0.0845
761.54  0.0865
761.55  0.0885
761.56  0.0909
761.57  0.0933
761.58  0.0957
761.59  0.0981
761.60  0.1005
761.61  0.1029
761.62  0.1053
761.63  0.1078
761.64  0.1102
761.65  0.1126
761.66  0.1154
761.67  0.1183
761.68  0.1211
761.69  0.1240
761.70  0.1268
761.71  0.1297
761.72  0.1326
761.73  0.1354
761.74  0.1383
761.75  0.1412
761.76  0.1445
761.77  0.1478
761.78  0.1511
761.79  0.1544
761.80  0.1577
761.81  0.1611
761.82  0.1644
761.83  0.1678
761.84  0.1711
761.85  0.1745
761.86  0.1783
761.87  0.1820
761.88  0.1858
761.89  0.1896
761.90  0.1933
761.91  0.1972
761.92  0.2010
761.93  0.2049
761.94  0.2087
761.95  0.2125
761.96  0.2167
761.97  0.2210
761.98  0.2252
761.99  0.2294
762.00  0.2336
762.01  0.2379
762.02  0.2422
762.03  0.2466
762.04  0.2509
762.05  0.2552
762.06  0.2598
762.07  0.2644
762.08  0.2691
762.09  0.2737
762.10  0.2783
762.11  0.2831
762.12  0.2878
762.13  0.2926
762.14  0.2973
762.15  0.3021
762.16  0.3071
762.17  0.3121
762.18  0.3170
762.19  0.3220
762.20  0.3270
762.21  0.3321
762.22  0.3373
762.23  0.3424
762.24  0.3476
762.25  0.3527
762.26  0.3580
762.27  0.3632
762.28  0.3685
762.29  0.3737
762.30  0.3790
762.31  0.3844
762.32  0.3899
762.33  0.3953
762.34  0.4008
762.35  0.4062
762.36  0.4117
762.37  0.4171
762.38  0.4225
762.39  0.4280
762.40  0.4334
762.41  0.4391
762.42  0.4447
762.43  0.4504
762.44  0.4561
762.45  0.4617
762.46  0.4672
762.47  0.4727
762.48  0.4782
762.49  0.4837
762.50  0.4892
762.51  0.4950
762.52  0.5008
762.53  0.5066
762.54  0.5123
762.55  0.5181
762.56  0.5236
762.57  0.5290
762.58  0.5345
762.59  0.5399
762.60  0.5454
762.61  0.5511
762.62  0.5569
762.63  0.5627
762.64  0.5684
762.65  0.5748
762.66  0.5801
762.67  0.5854
762.68  0.5907
762.69  0.5961
762.70  0.6014
762.71  0.6070
762.72  0.6127
762.73  0.6184
762.74  0.6241
762.75  0.6297
762.76  0.6348
762.77  0.6398
762.78  0.6449
762.79  0.6499
762.80  0.6550
762.81  0.6604
762.82  0.6659
762.83  0.6713
762.84  0.6768
762.85  0.6822
762.86  0.6869
762.87  0.6916
762.88  0.6963
762.89  0.7010
762.90  0.7058
762.91  0.7109
762.92  0.7160
762.93  0.7211
762.94  0.7262
762.95  0.7314
762.96  0.7356
762.97  0.7399
762.98  0.7442
762.99  0.7485
763.00  0.7528
763.01  0.7575
763.02  0.7622
763.03  0.7669
763.04  0.7717
763.05  0.7764
763.06  0.7802
763.07  0.7840
763.08  0.7879
763.09  0.7917
763.10  0.7955
763.11  0.7998
763.12  0.8040
763.13  0.8083
763.14  0.8125
763.15  0.8168
763.16  0.8201
763.17  0.8235
763.18  0.8269
763.19  0.8302
763.20  0.8336
763.21  0.8373
763.22  0.8411
763.23  0.8448
763.24  0.8486
763.25  0.8523
763.26  0.8552
763.27  0.8581
763.28  0.8610
763.29  0.8639
763.30  0.8668
763.31  0.8701
763.32  0.8733
763.33  0.8765
763.34  0.8797
763.35  0.8830
763.36  0.8854
763.37  0.8879
763.38  0.8904
763.39  0.8929
763.40  0.8953
763.41  0.8980
763.42  0.9008
763.43  0.9035
763.44  0.9062
763.45  0.9089
763.46  0.9110
763.47  0.9131
763.48  0.9152
763.49  0.9173
763.50  0.9194
763.51  0.9216
763.52  0.9238
763.53  0.9260
763.54  0.9282
763.55  0.9304
763.56  0.9322
763.57  0.9340
763.58  0.9357
763.59  0.9375
763.60  0.9393
763.61  0.9410
763.62  0.9428
763.63  0.9445
763.64  0.9463
763.65  0.9481
763.66  0.9496
763.67  0.9511
763.68  0.9525
763.69  0.9540
763.70  0.9555
763.71  0.9569
763.72  0.9582
763.73  0.9596
763.74  0.9609
763.75  0.9622
763.76  0.9635
763.77  0.9648
763.78  0.9661
763.79  0.9674
763.80  0.9686
763.81  0.9696
763.82  0.9705
763.83  0.9715
763.84  0.9725
763.85  0.9734
763.86  0.9745
763.87  0.9756
763.88  0.9768
763.89  0.9779
763.90  0.9790
763.91  0.9796
763.92  0.9802
763.93  0.9808
763.94  0.9815
763.95  0.9821
763.96  0.9831
763.97  0.9840
763.98  0.9850
763.99  0.9860
764.00  0.9869
764.01  0.9873
764.02  0.9876
764.03  0.9879
764.04  0.9883
764.05  0.9886
764.06  0.9894
764.07  0.9903
764.08  0.9911
764.09  0.9920
764.10  0.9928
764.11  0.9929
764.12  0.9930
764.13  0.9931
764.14  0.9931
764.15  0.9932
764.16  0.9939
764.17  0.9947
764.18  0.9954
764.19  0.9961
764.20  0.9969
764.21  0.9967
764.22  0.9966
764.23  0.9965
764.24  0.9963
764.25  0.9962
764.26  0.9968
764.27  0.9974
764.28  0.9980
764.29  0.9986
764.30  0.9992
764.31  0.9989
764.32  0.9986
764.33  0.9983
764.34  0.9979
764.35  0.9976
764.36  0.9981
764.37  0.9986
764.38  0.9990
764.39  0.9995
764.40  1.0000
764.41  0.9995
764.42  0.9991
764.43  0.9986
764.44  0.9981
764.45  0.9976
764.46  0.9980
764.47  0.9983
764.48  0.9986
764.49  0.9989
764.50  0.9992
764.51  0.9986
764.52  0.9980
764.53  0.9974
764.54  0.9968
764.55  0.9962
764.56  0.9963
764.57  0.9965
764.58  0.9966
764.59  0.9968
764.60  0.9969
764.61  0.9962
764.62  0.9954
764.63  0.9947
764.64  0.9940
764.65  0.9932
764.66  0.9932
764.67  0.9931
764.68  0.9930
764.69  0.9929
764.70  0.9929
764.71  0.9920
764.72  0.9912
764.73  0.9903
764.74  0.9895
764.75  0.9886
764.76  0.9883
764.77  0.9880
764.78  0.9876
764.79  0.9873
764.80  0.9870
764.81  0.9860
764.82  0.9851
764.83  0.9841
764.84  0.9831
764.85  0.9822
764.86  0.9815
764.87  0.9809
764.88  0.9803
764.89  0.9797
764.90  0.9791
764.91  0.9779
764.92  0.9768
764.93  0.9757
764.94  0.9746
764.95  0.9735
764.96  0.9726
764.97  0.9716
764.98  0.9707
764.99  0.9697
765.00  0.9688
765.01  0.9675
765.02  0.9662
765.03  0.9649
765.04  0.9636
765.05  0.9624
765.06  0.9610
765.07  0.9597
765.08  0.9584
765.09  0.9570
765.10  0.9557
765.11  0.9542
765.12  0.9527
765.13  0.9512
765.14  0.9497
765.15  0.9482
765.16  0.9465
765.17  0.9447
765.18  0.9430
765.19  0.9412
765.20  0.9395
765.21  0.9377
765.22  0.9360
765.23  0.9342
765.24  0.9324
765.25  0.9307
765.26  0.9284
765.27  0.9262
765.28  0.9240
765.29  0.9218
765.30  0.9196
765.31  0.9175
765.32  0.9154
765.33  0.9133
765.34  0.9112
765.35  0.9091
765.36  0.9064
765.37  0.9037
765.38  0.9010
765.39  0.8983
765.40  0.8956
765.41  0.8931
765.42  0.8907
765.43  0.8882
765.44  0.8857
765.45  0.8832
765.46  0.8800
765.47  0.8768
765.48  0.8736
765.49  0.8704
765.50  0.8671
765.51  0.8642
765.52  0.8613
765.53  0.8584
765.54  0.8555
765.55  0.8526
765.56  0.8489
765.57  0.8451
765.58  0.8414
765.59  0.8377
765.60  0.8339
765.61  0.8306
765.62  0.8272
765.63  0.8238
765.64  0.8205
765.65  0.8171
765.66  0.8129
765.67  0.8086
765.68  0.8044
765.69  0.8001
765.70  0.7959
765.71  0.7921
765.72  0.7882
765.73  0.7844
765.74  0.7806
765.75  0.7767
765.76  0.7720
765.77  0.7673
765.78  0.7626
765.79  0.7579
765.80  0.7532
765.81  0.7489
765.82  0.7446
765.83  0.7403
765.84  0.7360
765.85  0.7317
765.86  0.7266
765.87  0.7215
765.88  0.7164
765.89  0.7112
765.90  0.7061
765.91  0.7014
765.92  0.6967
765.93  0.6920
765.94  0.6873
765.95  0.6826
765.96  0.6772
765.97  0.6717
765.98  0.6663
765.99  0.6608
766.00  0.6554
766.01  0.6503
766.02  0.6453
766.03  0.6402
766.04  0.6352
766.05  0.6301
766.06  0.6244
766.07  0.6188
766.08  0.6131
766.09  0.6074
766.10  0.6017
766.11  0.5964
766.12  0.5911
766.13  0.5858
766.14  0.5805
766.15  0.5752
766.16  0.5688
766.17  0.5630
766.18  0.5572
766.19  0.5515
766.20  0.5457
766.21  0.5403
766.22  0.5348
766.23  0.5294
766.24  0.5239
766.25  0.5185
766.26  0.5127
766.27  0.5069
766.28  0.5011
766.29  0.4954
766.30  0.4896
766.31  0.4841
766.32  0.4786
766.33  0.4731
766.34  0.4676
766.35  0.4621
766.36  0.4564
766.37  0.4507
766.38  0.4451
766.39  0.4394
766.40  0.4337
766.41  0.4283
766.42  0.4229
766.43  0.4174
766.44  0.4120
766.45  0.4065
766.46  0.4011
766.47  0.3956
766.48  0.3902
766.49  0.3847
766.50  0.3793
766.51  0.3740
766.52  0.3688
766.53  0.3635
766.54  0.3582
766.55  0.3530
766.56  0.3478
766.57  0.3427
766.58  0.3376
766.59  0.3324
766.60  0.3273
766.61  0.3223
766.62  0.3173
766.63  0.3123
766.64  0.3073
766.65  0.3023
766.66  0.2976
766.67  0.2928
766.68  0.2881
766.69  0.2833
766.70  0.2786
766.71  0.2739
766.72  0.2693
766.73  0.2647
766.74  0.2600
766.75  0.2554
766.76  0.2511
766.77  0.2468
766.78  0.2425
766.79  0.2381
766.80  0.2338
766.81  0.2296
766.82  0.2254
766.83  0.2212
766.84  0.2169
766.85  0.2127
766.86  0.2089
766.87  0.2050
766.88  0.2012
766.89  0.1974
766.90  0.1935
766.91  0.1898
766.92  0.1860
766.93  0.1822
766.94  0.1784
766.95  0.1747
766.96  0.1713
766.97  0.1680
766.98  0.1646
766.99  0.1612
767.00  0.1579
767.01  0.1546
767.02  0.1513
767.03  0.1480
767.04  0.1447
767.05  0.1413
767.06  0.1385
767.07  0.1356
767.08  0.1327
767.09  0.1298
767.10  0.1269
767.11  0.1241
767.12  0.1213
767.13  0.1184
767.14  0.1156
767.15  0.1127
767.16  0.1103
767.17  0.1079
767.18  0.1054
767.19  0.1030
767.20  0.1006
767.21  0.0982
767.22  0.0958
767.23  0.0934
767.24  0.0910
767.25  0.0886
767.26  0.0866
767.27  0.0846
767.28  0.0826
767.29  0.0805
767.30  0.0785
767.31  0.0765
767.32  0.0746
767.33  0.0726
767.34  0.0706
767.35  0.0686
767.36  0.0670
767.37  0.0653
767.38  0.0637
767.39  0.0621
767.40  0.0604
767.41  0.0582
767.42  0.0566
767.43  0.0550
767.44  0.0534
767.45  0.0518
767.46  0.0505
767.47  0.0492
767.48  0.0480
767.49  0.0467
767.50  0.0454
767.51  0.0441
767.52  0.0428
767.53  0.0416
767.54  0.0403
767.55  0.0390
767.56  0.0380
767.57  0.0370
767.58  0.0360
767.59  0.0350
767.60  0.0339
767.61  0.0329
767.62  0.0319
767.63  0.0309
767.64  0.0299
767.65  0.0289
767.66  0.0281
767.67  0.0273
767.68  0.0266
767.69  0.0258
767.70  0.0250
767.71  0.0242
767.72  0.0234
767.73  0.0227
767.74  0.0219
767.75  0.0211
767.76  0.0205
767.77  0.0199
767.78  0.0193
767.79  0.0187
767.80  0.0181
767.81  0.0175
767.82  0.0169
767.83  0.0163
767.84  0.0158
767.85  0.0152
767.86  0.0147
767.87  0.0143
767.88  0.0138
767.89  0.0134
767.90  0.0129
767.91  0.0125
767.92  0.0121
767.93  0.0116
767.94  0.0112
767.95  0.0107
767.96  0.0104
767.97  0.0101
767.98  0.0098
767.99  0.0094
768.00  0.0091
768.01  0.0088
768.02  0.0085
768.03  0.0081
768.04  0.0078
768.05  0.0075
768.06  0.0072
768.07  0.0070
768.08  0.0068
768.09  0.0065
768.10  0.0063
768.11  0.0061
768.12  0.0058
768.13  0.0056
768.14  0.0054
768.15  0.0051
768.16  0.0050
768.17  0.0048
768.18  0.0046
768.19  0.0045
768.20  0.0043
768.21  0.0041
768.22  0.0040
768.23  0.0038
768.24  0.0036
768.25  0.0035
768.26  0.0034
768.27  0.0032
768.28  0.0031
768.29  0.0030
768.30  0.0029
768.31  0.0028
768.32  0.0027
768.33  0.0025
768.34  0.0024
768.35  0.0023
768.36  0.0022
768.37  0.0022
768.38  0.0021
768.39  0.0020
768.40  0.0019
768.41  0.0018
768.42  0.0018
768.43  0.0017
768.44  0.0016
768.45  0.0015
768.46  0.0015
768.47  0.0014
768.48  0.0014
768.49  0.0013
768.50  0.0012
768.51  0.0012
768.52  0.0011
768.53  0.0011
768.54  0.0010
768.55  0.0010
768.56  0.0009
768.57  0.0009
768.58  0.0009
768.59  0.0008
768.60  0.0008
768.61  0.0008
768.62  0.0007
768.63  0.0007
768.64  0.0007
768.65  0.0006
