# Provided by ESA in 10/2012
# Important Notes:
# The data contained here correspond to the OLCI Spectral Model CDR derived in 2011.
# The data have been calculated for the camera 4, pointing nadir.
701.37  0.0006
701.38  0.0006
701.39  0.0007
701.40  0.0007
701.41  0.0007
701.42  0.0008
701.43  0.0008
701.44  0.0008
701.45  0.0009
701.46  0.0009
701.47  0.0009
701.48  0.0010
701.49  0.0010
701.50  0.0011
701.51  0.0011
701.52  0.0012
701.53  0.0012
701.54  0.0013
701.55  0.0013
701.56  0.0014
701.57  0.0014
701.58  0.0015
701.59  0.0016
701.60  0.0017
701.61  0.0017
701.62  0.0018
701.63  0.0019
701.64  0.0020
701.65  0.0021
701.66  0.0021
701.67  0.0022
701.68  0.0023
701.69  0.0024
701.70  0.0025
701.71  0.0027
701.72  0.0028
701.73  0.0029
701.74  0.0030
701.75  0.0031
701.76  0.0032
701.77  0.0033
701.78  0.0035
701.79  0.0036
701.80  0.0038
701.81  0.0040
701.82  0.0041
701.83  0.0043
701.84  0.0044
701.85  0.0046
701.86  0.0047
701.87  0.0049
701.88  0.0051
701.89  0.0054
701.90  0.0056
701.91  0.0058
701.92  0.0060
701.93  0.0063
701.94  0.0065
701.95  0.0067
701.96  0.0069
701.97  0.0072
701.98  0.0075
701.99  0.0078
702.00  0.0081
702.01  0.0084
702.02  0.0087
702.03  0.0090
702.04  0.0093
702.05  0.0096
702.06  0.0100
702.07  0.0103
702.08  0.0107
702.09  0.0111
702.10  0.0115
702.11  0.0120
702.12  0.0124
702.13  0.0128
702.14  0.0132
702.15  0.0137
702.16  0.0141
702.17  0.0145
702.18  0.0151
702.19  0.0157
702.20  0.0162
702.21  0.0168
702.22  0.0174
702.23  0.0179
702.24  0.0185
702.25  0.0191
702.26  0.0196
702.27  0.0202
702.28  0.0210
702.29  0.0217
702.30  0.0225
702.31  0.0232
702.32  0.0239
702.33  0.0247
702.34  0.0254
702.35  0.0262
702.36  0.0269
702.37  0.0277
702.38  0.0287
702.39  0.0296
702.40  0.0306
702.41  0.0316
702.42  0.0325
702.43  0.0335
702.44  0.0345
702.45  0.0354
702.46  0.0364
702.47  0.0374
702.48  0.0386
702.49  0.0398
702.50  0.0411
702.51  0.0423
702.52  0.0435
702.53  0.0448
702.54  0.0460
702.55  0.0472
702.56  0.0485
702.57  0.0497
702.58  0.0512
702.59  0.0528
702.60  0.0543
702.61  0.0558
702.62  0.0580
702.63  0.0595
702.64  0.0611
702.65  0.0627
702.66  0.0642
702.67  0.0658
702.68  0.0677
702.69  0.0696
702.70  0.0716
702.71  0.0735
702.72  0.0754
702.73  0.0773
702.74  0.0792
702.75  0.0812
702.76  0.0831
702.77  0.0850
702.78  0.0873
702.79  0.0897
702.80  0.0920
702.81  0.0943
702.82  0.0966
702.83  0.0989
702.84  0.1013
702.85  0.1036
702.86  0.1059
702.87  0.1083
702.88  0.1110
702.89  0.1137
702.90  0.1165
702.91  0.1192
702.92  0.1219
702.93  0.1247
702.94  0.1275
702.95  0.1303
702.96  0.1330
702.97  0.1358
702.98  0.1390
702.99  0.1422
703.00  0.1454
703.01  0.1485
703.02  0.1517
703.03  0.1550
703.04  0.1582
703.05  0.1614
703.06  0.1647
703.07  0.1679
703.08  0.1715
703.09  0.1752
703.10  0.1788
703.11  0.1824
703.12  0.1861
703.13  0.1898
703.14  0.1935
703.15  0.1972
703.16  0.2009
703.17  0.2046
703.18  0.2087
703.19  0.2127
703.20  0.2168
703.21  0.2209
703.22  0.2249
703.23  0.2291
703.24  0.2333
703.25  0.2374
703.26  0.2416
703.27  0.2457
703.28  0.2502
703.29  0.2547
703.30  0.2592
703.31  0.2636
703.32  0.2681
703.33  0.2727
703.34  0.2773
703.35  0.2819
703.36  0.2864
703.37  0.2910
703.38  0.2958
703.39  0.3007
703.40  0.3055
703.41  0.3103
703.42  0.3151
703.43  0.3201
703.44  0.3250
703.45  0.3300
703.46  0.3350
703.47  0.3399
703.48  0.3450
703.49  0.3501
703.50  0.3552
703.51  0.3603
703.52  0.3654
703.53  0.3706
703.54  0.3759
703.55  0.3812
703.56  0.3864
703.57  0.3917
703.58  0.3970
703.59  0.4022
703.60  0.4075
703.61  0.4127
703.62  0.4180
703.63  0.4235
703.64  0.4290
703.65  0.4344
703.66  0.4399
703.67  0.4454
703.68  0.4507
703.69  0.4560
703.70  0.4614
703.71  0.4667
703.72  0.4720
703.73  0.4776
703.74  0.4832
703.75  0.4888
703.76  0.4944
703.77  0.5000
703.78  0.5053
703.79  0.5105
703.80  0.5158
703.81  0.5211
703.82  0.5264
703.83  0.5320
703.84  0.5376
703.85  0.5431
703.86  0.5487
703.87  0.5549
703.88  0.5601
703.89  0.5652
703.90  0.5704
703.91  0.5755
703.92  0.5807
703.93  0.5862
703.94  0.5917
703.95  0.5972
703.96  0.6027
703.97  0.6082
703.98  0.6131
703.99  0.6180
704.00  0.6229
704.01  0.6278
704.02  0.6327
704.03  0.6380
704.04  0.6433
704.05  0.6486
704.06  0.6539
704.07  0.6592
704.08  0.6638
704.09  0.6683
704.10  0.6729
704.11  0.6775
704.12  0.6820
704.13  0.6870
704.14  0.6920
704.15  0.6970
704.16  0.7020
704.17  0.7069
704.18  0.7111
704.19  0.7153
704.20  0.7195
704.21  0.7236
704.22  0.7278
704.23  0.7324
704.24  0.7370
704.25  0.7416
704.26  0.7462
704.27  0.7508
704.28  0.7545
704.29  0.7582
704.30  0.7620
704.31  0.7657
704.32  0.7694
704.33  0.7736
704.34  0.7777
704.35  0.7819
704.36  0.7860
704.37  0.7902
704.38  0.7934
704.39  0.7967
704.40  0.8000
704.41  0.8033
704.42  0.8066
704.43  0.8102
704.44  0.8139
704.45  0.8176
704.46  0.8212
704.47  0.8249
704.48  0.8277
704.49  0.8306
704.50  0.8334
704.51  0.8362
704.52  0.8391
704.53  0.8423
704.54  0.8454
704.55  0.8486
704.56  0.8517
704.57  0.8549
704.58  0.8573
704.59  0.8597
704.60  0.8622
704.61  0.8646
704.62  0.8670
704.63  0.8697
704.64  0.8724
704.65  0.8750
704.66  0.8777
704.67  0.8803
704.68  0.8824
704.69  0.8845
704.70  0.8865
704.71  0.8886
704.72  0.8907
704.73  0.8929
704.74  0.8950
704.75  0.8972
704.76  0.8994
704.77  0.9016
704.78  0.9033
704.79  0.9051
704.80  0.9068
704.81  0.9086
704.82  0.9103
704.83  0.9121
704.84  0.9138
704.85  0.9156
704.86  0.9173
704.87  0.9190
704.88  0.9205
704.89  0.9220
704.90  0.9235
704.91  0.9250
704.92  0.9265
704.93  0.9278
704.94  0.9292
704.95  0.9305
704.96  0.9318
704.97  0.9332
704.98  0.9344
704.99  0.9357
705.00  0.9370
705.01  0.9383
705.02  0.9396
705.03  0.9405
705.04  0.9415
705.05  0.9425
705.06  0.9434
705.07  0.9444
705.08  0.9455
705.09  0.9466
705.10  0.9478
705.11  0.9489
705.12  0.9506
705.13  0.9513
705.14  0.9520
705.15  0.9526
705.16  0.9533
705.17  0.9540
705.18  0.9550
705.19  0.9560
705.20  0.9570
705.21  0.9581
705.22  0.9591
705.23  0.9595
705.24  0.9599
705.25  0.9603
705.26  0.9607
705.27  0.9612
705.28  0.9621
705.29  0.9630
705.30  0.9639
705.31  0.9648
705.32  0.9657
705.33  0.9659
705.34  0.9661
705.35  0.9663
705.36  0.9665
705.37  0.9667
705.38  0.9675
705.39  0.9684
705.40  0.9692
705.41  0.9700
705.42  0.9709
705.43  0.9709
705.44  0.9709
705.45  0.9709
705.46  0.9710
705.47  0.9710
705.48  0.9717
705.49  0.9725
705.50  0.9732
705.51  0.9740
705.52  0.9747
705.53  0.9746
705.54  0.9745
705.55  0.9744
705.56  0.9743
705.57  0.9742
705.58  0.9749
705.59  0.9755
705.60  0.9762
705.61  0.9769
705.62  0.9775
705.63  0.9773
705.64  0.9771
705.65  0.9769
705.66  0.9767
705.67  0.9766
705.68  0.9771
705.69  0.9777
705.70  0.9783
705.71  0.9789
705.72  0.9795
705.73  0.9792
705.74  0.9790
705.75  0.9787
705.76  0.9785
705.77  0.9783
705.78  0.9788
705.79  0.9793
705.80  0.9797
705.81  0.9802
705.82  0.9807
705.83  0.9805
705.84  0.9802
705.85  0.9800
705.86  0.9798
705.87  0.9795
705.88  0.9799
705.89  0.9803
705.90  0.9807
705.91  0.9811
705.92  0.9815
705.93  0.9813
705.94  0.9811
705.95  0.9809
705.96  0.9807
705.97  0.9805
705.98  0.9808
705.99  0.9811
706.00  0.9814
706.01  0.9817
706.02  0.9820
706.03  0.9818
706.04  0.9817
706.05  0.9815
706.06  0.9814
706.07  0.9812
706.08  0.9814
706.09  0.9816
706.10  0.9818
706.11  0.9820
706.12  0.9822
706.13  0.9822
706.14  0.9821
706.15  0.9821
706.16  0.9820
706.17  0.9819
706.18  0.9820
706.19  0.9821
706.20  0.9822
706.21  0.9823
706.22  0.9824
706.23  0.9825
706.24  0.9825
706.25  0.9825
706.26  0.9826
706.27  0.9826
706.28  0.9826
706.29  0.9826
706.30  0.9826
706.31  0.9826
706.32  0.9826
706.33  0.9827
706.34  0.9829
706.35  0.9830
706.36  0.9831
706.37  0.9839
706.38  0.9838
706.39  0.9837
706.40  0.9837
706.41  0.9836
706.42  0.9835
706.43  0.9838
706.44  0.9840
706.45  0.9843
706.46  0.9845
706.47  0.9848
706.48  0.9846
706.49  0.9845
706.50  0.9843
706.51  0.9842
706.52  0.9840
706.53  0.9843
706.54  0.9847
706.55  0.9850
706.56  0.9854
706.57  0.9857
706.58  0.9855
706.59  0.9852
706.60  0.9850
706.61  0.9848
706.62  0.9845
706.63  0.9849
706.64  0.9853
706.65  0.9858
706.66  0.9862
706.67  0.9866
706.68  0.9863
706.69  0.9860
706.70  0.9857
706.71  0.9854
706.72  0.9851
706.73  0.9855
706.74  0.9860
706.75  0.9864
706.76  0.9868
706.77  0.9873
706.78  0.9869
706.79  0.9866
706.80  0.9862
706.81  0.9859
706.82  0.9856
706.83  0.9860
706.84  0.9865
706.85  0.9869
706.86  0.9873
706.87  0.9878
706.88  0.9874
706.89  0.9871
706.90  0.9867
706.91  0.9863
706.92  0.9860
706.93  0.9864
706.94  0.9868
706.95  0.9873
706.96  0.9877
706.97  0.9881
706.98  0.9878
706.99  0.9874
707.00  0.9870
707.01  0.9867
707.02  0.9863
707.03  0.9867
707.04  0.9871
707.05  0.9875
707.06  0.9879
707.07  0.9882
707.08  0.9879
707.09  0.9876
707.10  0.9873
707.11  0.9870
707.12  0.9866
707.13  0.9870
707.14  0.9873
707.15  0.9876
707.16  0.9879
707.17  0.9882
707.18  0.9880
707.19  0.9877
707.20  0.9875
707.21  0.9872
707.22  0.9869
707.23  0.9872
707.24  0.9874
707.25  0.9877
707.26  0.9879
707.27  0.9882
707.28  0.9880
707.29  0.9878
707.30  0.9876
707.31  0.9875
707.32  0.9873
707.33  0.9874
707.34  0.9876
707.35  0.9878
707.36  0.9879
707.37  0.9881
707.38  0.9874
707.39  0.9874
707.40  0.9873
707.41  0.9873
707.42  0.9872
707.43  0.9873
707.44  0.9874
707.45  0.9875
707.46  0.9876
707.47  0.9877
707.48  0.9877
707.49  0.9878
707.50  0.9878
707.51  0.9878
707.52  0.9879
707.53  0.9879
707.54  0.9879
707.55  0.9879
707.56  0.9878
707.57  0.9878
707.58  0.9880
707.59  0.9881
707.60  0.9883
707.61  0.9884
707.62  0.9891
707.63  0.9891
707.64  0.9890
707.65  0.9889
707.66  0.9888
707.67  0.9888
707.68  0.9890
707.69  0.9893
707.70  0.9895
707.71  0.9898
707.72  0.9901
707.73  0.9899
707.74  0.9897
707.75  0.9896
707.76  0.9894
707.77  0.9893
707.78  0.9896
707.79  0.9899
707.80  0.9903
707.81  0.9906
707.82  0.9910
707.83  0.9907
707.84  0.9905
707.85  0.9903
707.86  0.9900
707.87  0.9898
707.88  0.9902
707.89  0.9906
707.90  0.9910
707.91  0.9914
707.92  0.9918
707.93  0.9915
707.94  0.9912
707.95  0.9909
707.96  0.9906
707.97  0.9903
707.98  0.9908
707.99  0.9912
708.00  0.9917
708.01  0.9921
708.02  0.9925
708.03  0.9922
708.04  0.9919
708.05  0.9915
708.06  0.9912
708.07  0.9908
708.08  0.9913
708.09  0.9917
708.10  0.9922
708.11  0.9926
708.12  0.9931
708.13  0.9927
708.14  0.9923
708.15  0.9920
708.16  0.9916
708.17  0.9913
708.18  0.9917
708.19  0.9921
708.20  0.9925
708.21  0.9929
708.22  0.9934
708.23  0.9930
708.24  0.9927
708.25  0.9923
708.26  0.9920
708.27  0.9916
708.28  0.9920
708.29  0.9924
708.30  0.9927
708.31  0.9931
708.32  0.9935
708.33  0.9932
708.34  0.9929
708.35  0.9925
708.36  0.9922
708.37  0.9919
708.38  0.9922
708.39  0.9925
708.40  0.9929
708.41  0.9932
708.42  0.9935
708.43  0.9932
708.44  0.9930
708.45  0.9927
708.46  0.9925
708.47  0.9922
708.48  0.9925
708.49  0.9927
708.50  0.9929
708.51  0.9932
708.52  0.9934
708.53  0.9933
708.54  0.9931
708.55  0.9929
708.56  0.9927
708.57  0.9925
708.58  0.9927
708.59  0.9929
708.60  0.9930
708.61  0.9932
708.62  0.9934
708.63  0.9927
708.64  0.9926
708.65  0.9926
708.66  0.9925
708.67  0.9925
708.68  0.9926
708.69  0.9926
708.70  0.9927
708.71  0.9928
708.72  0.9929
708.73  0.9930
708.74  0.9930
708.75  0.9931
708.76  0.9931
708.77  0.9931
708.78  0.9931
708.79  0.9931
708.80  0.9931
708.81  0.9931
708.82  0.9931
708.83  0.9932
708.84  0.9934
708.85  0.9935
708.86  0.9937
708.87  0.9944
708.88  0.9943
708.89  0.9943
708.90  0.9942
708.91  0.9941
708.92  0.9940
708.93  0.9943
708.94  0.9945
708.95  0.9948
708.96  0.9951
708.97  0.9953
708.98  0.9952
708.99  0.9950
709.00  0.9948
709.01  0.9947
709.02  0.9945
709.03  0.9948
709.04  0.9951
709.05  0.9954
709.06  0.9958
709.07  0.9961
709.08  0.9958
709.09  0.9956
709.10  0.9953
709.11  0.9951
709.12  0.9948
709.13  0.9952
709.14  0.9956
709.15  0.9959
709.16  0.9963
709.17  0.9967
709.18  0.9964
709.19  0.9961
709.20  0.9957
709.21  0.9954
709.22  0.9951
709.23  0.9955
709.24  0.9959
709.25  0.9964
709.26  0.9968
709.27  0.9972
709.28  0.9968
709.29  0.9965
709.30  0.9961
709.31  0.9957
709.32  0.9954
709.33  0.9958
709.34  0.9962
709.35  0.9966
709.36  0.9971
709.37  0.9975
709.38  0.9971
709.39  0.9967
709.40  0.9963
709.41  0.9959
709.42  0.9956
709.43  0.9960
709.44  0.9964
709.45  0.9968
709.46  0.9972
709.47  0.9976
709.48  0.9972
709.49  0.9968
709.50  0.9964
709.51  0.9961
709.52  0.9957
709.53  0.9960
709.54  0.9964
709.55  0.9968
709.56  0.9971
709.57  0.9975
709.58  0.9971
709.59  0.9968
709.60  0.9965
709.61  0.9961
709.62  0.9958
709.63  0.9961
709.64  0.9964
709.65  0.9967
709.66  0.9970
709.67  0.9973
709.68  0.9970
709.69  0.9967
709.70  0.9964
709.71  0.9961
709.72  0.9958
709.73  0.9961
709.74  0.9963
709.75  0.9965
709.76  0.9967
709.77  0.9970
709.78  0.9968
709.79  0.9966
709.80  0.9964
709.81  0.9961
709.82  0.9959
709.83  0.9961
709.84  0.9962
709.85  0.9964
709.86  0.9965
709.87  0.9966
709.88  0.9960
709.89  0.9959
709.90  0.9958
709.91  0.9957
709.92  0.9956
709.93  0.9957
709.94  0.9958
709.95  0.9959
709.96  0.9959
709.97  0.9960
709.98  0.9960
709.99  0.9960
710.00  0.9961
710.01  0.9961
710.02  0.9961
710.03  0.9961
710.04  0.9960
710.05  0.9960
710.06  0.9960
710.07  0.9959
710.08  0.9960
710.09  0.9962
710.10  0.9963
710.11  0.9964
710.12  0.9971
710.13  0.9970
710.14  0.9969
710.15  0.9968
710.16  0.9967
710.17  0.9966
710.18  0.9969
710.19  0.9971
710.20  0.9973
710.21  0.9976
710.22  0.9978
710.23  0.9976
710.24  0.9975
710.25  0.9973
710.26  0.9971
710.27  0.9969
710.28  0.9972
710.29  0.9975
710.30  0.9979
710.31  0.9982
710.32  0.9985
710.33  0.9983
710.34  0.9980
710.35  0.9977
710.36  0.9975
710.37  0.9972
710.38  0.9976
710.39  0.9980
710.40  0.9984
710.41  0.9988
710.42  0.9991
710.43  0.9988
710.44  0.9985
710.45  0.9982
710.46  0.9978
710.47  0.9975
710.48  0.9979
710.49  0.9984
710.50  0.9988
710.51  0.9992
710.52  0.9996
710.53  0.9992
710.54  0.9989
710.55  0.9985
710.56  0.9982
710.57  0.9978
710.58  0.9982
710.59  0.9986
710.60  0.9991
710.61  0.9995
710.62  0.9999
710.63  0.9995
710.64  0.9991
710.65  0.9988
710.66  0.9984
710.67  0.9980
710.68  0.9984
710.69  0.9988
710.70  0.9992
710.71  0.9996
710.72  1.0000
710.73  0.9996
710.74  0.9992
710.75  0.9989
710.76  0.9985
710.77  0.9981
710.78  0.9985
710.79  0.9988
710.80  0.9992
710.81  0.9995
710.82  0.9999
710.83  0.9996
710.84  0.9992
710.85  0.9989
710.86  0.9985
710.87  0.9982
710.88  0.9985
710.89  0.9988
710.90  0.9991
710.91  0.9994
710.92  0.9997
710.93  0.9994
710.94  0.9991
710.95  0.9988
710.96  0.9985
710.97  0.9982
710.98  0.9985
710.99  0.9987
711.00  0.9989
711.01  0.9991
711.02  0.9994
711.03  0.9992
711.04  0.9990
711.05  0.9988
711.06  0.9986
711.07  0.9984
711.08  0.9985
711.09  0.9986
711.10  0.9988
711.11  0.9989
711.12  0.9991
711.13  0.9984
711.14  0.9983
711.15  0.9982
711.16  0.9981
711.17  0.9980
711.18  0.9981
711.19  0.9982
711.20  0.9983
711.21  0.9983
711.22  0.9984
711.23  0.9984
711.24  0.9984
711.25  0.9985
711.26  0.9985
711.27  0.9985
711.28  0.9985
711.29  0.9984
711.30  0.9984
711.31  0.9984
711.32  0.9983
711.33  0.9984
711.34  0.9986
711.35  0.9987
711.36  0.9988
711.37  0.9989
711.38  0.9988
711.39  0.9986
711.40  0.9985
711.41  0.9984
711.42  0.9982
711.43  0.9984
711.44  0.9986
711.45  0.9988
711.46  0.9991
711.47  0.9993
711.48  0.9990
711.49  0.9988
711.50  0.9985
711.51  0.9983
711.52  0.9981
711.53  0.9983
711.54  0.9986
711.55  0.9989
711.56  0.9991
711.57  0.9994
711.58  0.9991
711.59  0.9987
711.60  0.9984
711.61  0.9981
711.62  0.9977
711.63  0.9980
711.64  0.9983
711.65  0.9986
711.66  0.9989
711.67  0.9992
711.68  0.9988
711.69  0.9984
711.70  0.9979
711.71  0.9975
711.72  0.9971
711.73  0.9974
711.74  0.9977
711.75  0.9980
711.76  0.9983
711.77  0.9986
711.78  0.9980
711.79  0.9975
711.80  0.9970
711.81  0.9964
711.82  0.9959
711.83  0.9962
711.84  0.9964
711.85  0.9967
711.86  0.9970
711.87  0.9972
711.88  0.9966
711.89  0.9960
711.90  0.9954
711.91  0.9947
711.92  0.9941
711.93  0.9943
711.94  0.9945
711.95  0.9946
711.96  0.9948
711.97  0.9950
711.98  0.9943
711.99  0.9936
712.00  0.9929
712.01  0.9922
712.02  0.9915
712.03  0.9915
712.04  0.9915
712.05  0.9916
712.06  0.9916
712.07  0.9916
712.08  0.9909
712.09  0.9901
712.10  0.9893
712.11  0.9885
712.12  0.9877
712.13  0.9876
712.14  0.9874
712.15  0.9873
712.16  0.9872
712.17  0.9870
712.18  0.9861
712.19  0.9853
712.20  0.9844
712.21  0.9835
712.22  0.9826
712.23  0.9823
712.24  0.9819
712.25  0.9815
712.26  0.9812
712.27  0.9808
712.28  0.9798
712.29  0.9789
712.30  0.9779
712.31  0.9769
712.32  0.9759
712.33  0.9753
712.34  0.9747
712.35  0.9740
712.36  0.9734
712.37  0.9727
712.38  0.9710
712.39  0.9700
712.40  0.9689
712.41  0.9678
712.42  0.9667
712.43  0.9658
712.44  0.9649
712.45  0.9639
712.46  0.9630
712.47  0.9621
712.48  0.9608
712.49  0.9596
712.50  0.9583
712.51  0.9570
712.52  0.9558
712.53  0.9545
712.54  0.9532
712.55  0.9519
712.56  0.9506
712.57  0.9493
712.58  0.9478
712.59  0.9463
712.60  0.9449
712.61  0.9434
712.62  0.9419
712.63  0.9402
712.64  0.9385
712.65  0.9367
712.66  0.9350
712.67  0.9333
712.68  0.9315
712.69  0.9298
712.70  0.9281
712.71  0.9263
712.72  0.9246
712.73  0.9224
712.74  0.9202
712.75  0.9180
712.76  0.9159
712.77  0.9137
712.78  0.9116
712.79  0.9096
712.80  0.9075
712.81  0.9054
712.82  0.9034
712.83  0.9007
712.84  0.8980
712.85  0.8953
712.86  0.8927
712.87  0.8900
712.88  0.8875
712.89  0.8851
712.90  0.8827
712.91  0.8802
712.92  0.8778
712.93  0.8746
712.94  0.8714
712.95  0.8682
712.96  0.8650
712.97  0.8618
712.98  0.8590
712.99  0.8561
713.00  0.8532
713.01  0.8504
713.02  0.8475
713.03  0.8438
713.04  0.8401
713.05  0.8364
713.06  0.8327
713.07  0.8290
713.08  0.8256
713.09  0.8223
713.10  0.8190
713.11  0.8157
713.12  0.8123
713.13  0.8081
713.14  0.8039
713.15  0.7997
713.16  0.7955
713.17  0.7913
713.18  0.7875
713.19  0.7837
713.20  0.7799
713.21  0.7761
713.22  0.7723
713.23  0.7676
713.24  0.7630
713.25  0.7583
713.26  0.7536
713.27  0.7489
713.28  0.7447
713.29  0.7404
713.30  0.7362
713.31  0.7319
713.32  0.7277
713.33  0.7226
713.34  0.7175
713.35  0.7124
713.36  0.7073
713.37  0.7023
713.38  0.6976
713.39  0.6929
713.40  0.6883
713.41  0.6836
713.42  0.6789
713.43  0.6735
713.44  0.6681
713.45  0.6627
713.46  0.6573
713.47  0.6519
713.48  0.6469
713.49  0.6419
713.50  0.6369
713.51  0.6318
713.52  0.6268
713.53  0.6212
713.54  0.6156
713.55  0.6099
713.56  0.6043
713.57  0.5987
713.58  0.5934
713.59  0.5881
713.60  0.5828
713.61  0.5775
713.62  0.5723
713.63  0.5659
713.64  0.5602
713.65  0.5545
713.66  0.5487
713.67  0.5430
713.68  0.5376
713.69  0.5322
713.70  0.5268
713.71  0.5213
713.72  0.5159
713.73  0.5102
713.74  0.5044
713.75  0.4987
713.76  0.4930
713.77  0.4872
713.78  0.4818
713.79  0.4763
713.80  0.4708
713.81  0.4653
713.82  0.4599
713.83  0.4542
713.84  0.4486
713.85  0.4430
713.86  0.4373
713.87  0.4317
713.88  0.4263
713.89  0.4209
713.90  0.4155
713.91  0.4101
713.92  0.4047
713.93  0.3993
713.94  0.3938
713.95  0.3884
713.96  0.3830
713.97  0.3776
713.98  0.3724
713.99  0.3671
714.00  0.3619
714.01  0.3567
714.02  0.3514
714.03  0.3463
714.04  0.3412
714.05  0.3361
714.06  0.3310
714.07  0.3259
714.08  0.3209
714.09  0.3159
714.10  0.3110
714.11  0.3060
714.12  0.3011
714.13  0.2963
714.14  0.2916
714.15  0.2869
714.16  0.2821
714.17  0.2774
714.18  0.2728
714.19  0.2682
714.20  0.2636
714.21  0.2590
714.22  0.2544
714.23  0.2501
714.24  0.2458
714.25  0.2415
714.26  0.2372
714.27  0.2329
714.28  0.2287
714.29  0.2245
714.30  0.2203
714.31  0.2161
714.32  0.2119
714.33  0.2081
714.34  0.2042
714.35  0.2004
714.36  0.1966
714.37  0.1928
714.38  0.1890
714.39  0.1853
714.40  0.1815
714.41  0.1778
714.42  0.1740
714.43  0.1707
714.44  0.1673
714.45  0.1640
714.46  0.1606
714.47  0.1573
714.48  0.1540
714.49  0.1507
714.50  0.1474
714.51  0.1441
714.52  0.1408
714.53  0.1380
714.54  0.1351
714.55  0.1322
714.56  0.1294
714.57  0.1265
714.58  0.1237
714.59  0.1208
714.60  0.1180
714.61  0.1152
714.62  0.1123
714.63  0.1099
714.64  0.1075
714.65  0.1051
714.66  0.1027
714.67  0.1003
714.68  0.0979
714.69  0.0955
714.70  0.0931
714.71  0.0907
714.72  0.0883
714.73  0.0863
714.74  0.0843
714.75  0.0823
714.76  0.0803
714.77  0.0783
714.78  0.0763
714.79  0.0743
714.80  0.0723
714.81  0.0704
714.82  0.0684
714.83  0.0667
714.84  0.0651
714.85  0.0635
714.86  0.0619
714.87  0.0602
714.88  0.0580
714.89  0.0564
714.90  0.0548
714.91  0.0532
714.92  0.0517
714.93  0.0504
714.94  0.0491
714.95  0.0478
714.96  0.0465
714.97  0.0453
714.98  0.0440
714.99  0.0427
715.00  0.0414
715.01  0.0402
715.02  0.0389
715.03  0.0379
715.04  0.0369
715.05  0.0359
715.06  0.0349
715.07  0.0339
715.08  0.0329
715.09  0.0318
715.10  0.0308
715.11  0.0298
715.12  0.0288
715.13  0.0280
715.14  0.0273
715.15  0.0265
715.16  0.0257
715.17  0.0249
715.18  0.0242
715.19  0.0234
715.20  0.0226
715.21  0.0218
715.22  0.0210
715.23  0.0205
715.24  0.0199
715.25  0.0193
715.26  0.0187
715.27  0.0181
715.28  0.0175
715.29  0.0169
715.30  0.0163
715.31  0.0157
715.32  0.0151
715.33  0.0147
715.34  0.0142
715.35  0.0138
715.36  0.0134
715.37  0.0129
715.38  0.0125
715.39  0.0120
715.40  0.0116
715.41  0.0112
715.42  0.0107
715.43  0.0104
715.44  0.0101
715.45  0.0097
715.46  0.0094
715.47  0.0091
715.48  0.0088
715.49  0.0084
715.50  0.0081
715.51  0.0078
715.52  0.0075
715.53  0.0072
715.54  0.0070
715.55  0.0068
715.56  0.0065
715.57  0.0063
715.58  0.0061
715.59  0.0058
715.60  0.0056
715.61  0.0054
715.62  0.0051
715.63  0.0050
715.64  0.0048
715.65  0.0046
715.66  0.0045
715.67  0.0043
715.68  0.0041
715.69  0.0040
715.70  0.0038
715.71  0.0036
715.72  0.0035
715.73  0.0033
715.74  0.0032
715.75  0.0031
715.76  0.0030
715.77  0.0029
715.78  0.0028
715.79  0.0027
715.80  0.0025
715.81  0.0024
715.82  0.0023
715.83  0.0022
715.84  0.0021
715.85  0.0021
715.86  0.0020
715.87  0.0019
715.88  0.0018
715.89  0.0018
715.90  0.0017
715.91  0.0016
715.92  0.0015
715.93  0.0015
715.94  0.0014
715.95  0.0014
715.96  0.0013
715.97  0.0012
715.98  0.0012
715.99  0.0011
716.00  0.0011
716.01  0.0010
716.02  0.0010
716.03  0.0009
716.04  0.0009
716.05  0.0009
716.06  0.0008
716.07  0.0008
716.08  0.0008
716.09  0.0007
716.10  0.0007
716.11  0.0007
716.12  0.0006
