# Provided by ESA in 10/2012
# Important Notes:
# The data contained here correspond to the OLCI Spectral Model CDR derived in 2011.
# The data have been calculated for the camera 4, pointing nadir.
502.92  0.0006
502.93  0.0006
502.94  0.0007
502.95  0.0007
502.96  0.0007
502.97  0.0008
502.98  0.0008
502.99  0.0008
503.00  0.0009
503.01  0.0009
503.02  0.0009
503.03  0.0010
503.04  0.0010
503.05  0.0011
503.06  0.0012
503.07  0.0012
503.08  0.0013
503.09  0.0013
503.10  0.0014
503.11  0.0014
503.12  0.0015
503.13  0.0015
503.14  0.0016
503.15  0.0017
503.16  0.0018
503.17  0.0018
503.18  0.0019
503.19  0.0020
503.20  0.0021
503.21  0.0022
503.22  0.0022
503.23  0.0023
503.24  0.0025
503.25  0.0026
503.26  0.0027
503.27  0.0028
503.28  0.0029
503.29  0.0030
503.30  0.0031
503.31  0.0032
503.32  0.0034
503.33  0.0035
503.34  0.0037
503.35  0.0038
503.36  0.0040
503.37  0.0042
503.38  0.0043
503.39  0.0045
503.40  0.0046
503.41  0.0048
503.42  0.0050
503.43  0.0052
503.44  0.0054
503.45  0.0056
503.46  0.0059
503.47  0.0061
503.48  0.0063
503.49  0.0065
503.50  0.0068
503.51  0.0070
503.52  0.0072
503.53  0.0075
503.54  0.0079
503.55  0.0082
503.56  0.0085
503.57  0.0088
503.58  0.0091
503.59  0.0094
503.60  0.0097
503.61  0.0101
503.62  0.0104
503.63  0.0108
503.64  0.0112
503.65  0.0117
503.66  0.0121
503.67  0.0125
503.68  0.0129
503.69  0.0134
503.70  0.0138
503.71  0.0142
503.72  0.0147
503.73  0.0152
503.74  0.0158
503.75  0.0164
503.76  0.0170
503.77  0.0175
503.78  0.0181
503.79  0.0187
503.80  0.0192
503.81  0.0198
503.82  0.0204
503.83  0.0212
503.84  0.0219
503.85  0.0227
503.86  0.0234
503.87  0.0242
503.88  0.0249
503.89  0.0257
503.90  0.0264
503.91  0.0272
503.92  0.0280
503.93  0.0289
503.94  0.0299
503.95  0.0309
503.96  0.0319
503.97  0.0328
503.98  0.0338
503.99  0.0348
504.00  0.0358
504.01  0.0367
504.02  0.0377
504.03  0.0390
504.04  0.0402
504.05  0.0414
504.06  0.0427
504.07  0.0439
504.08  0.0452
504.09  0.0464
504.10  0.0476
504.11  0.0489
504.12  0.0501
504.13  0.0517
504.14  0.0532
504.15  0.0548
504.16  0.0569
504.17  0.0585
504.18  0.0601
504.19  0.0617
504.20  0.0633
504.21  0.0648
504.22  0.0664
504.23  0.0683
504.24  0.0703
504.25  0.0722
504.26  0.0741
504.27  0.0761
504.28  0.0780
504.29  0.0800
504.30  0.0819
504.31  0.0839
504.32  0.0858
504.33  0.0881
504.34  0.0905
504.35  0.0928
504.36  0.0951
504.37  0.0975
504.38  0.0998
504.39  0.1022
504.40  0.1045
504.41  0.1069
504.42  0.1092
504.43  0.1120
504.44  0.1148
504.45  0.1175
504.46  0.1203
504.47  0.1231
504.48  0.1259
504.49  0.1287
504.50  0.1314
504.51  0.1342
504.52  0.1370
504.53  0.1402
504.54  0.1434
504.55  0.1467
504.56  0.1499
504.57  0.1531
504.58  0.1564
504.59  0.1596
504.60  0.1629
504.61  0.1661
504.62  0.1694
504.63  0.1731
504.64  0.1767
504.65  0.1804
504.66  0.1840
504.67  0.1878
504.68  0.1915
504.69  0.1952
504.70  0.1989
504.71  0.2027
504.72  0.2064
504.73  0.2105
504.74  0.2146
504.75  0.2187
504.76  0.2228
504.77  0.2270
504.78  0.2312
504.79  0.2353
504.80  0.2395
504.81  0.2437
504.82  0.2479
504.83  0.2524
504.84  0.2569
504.85  0.2614
504.86  0.2659
504.87  0.2705
504.88  0.2751
504.89  0.2798
504.90  0.2844
504.91  0.2890
504.92  0.2936
504.93  0.2985
504.94  0.3033
504.95  0.3081
504.96  0.3130
504.97  0.3180
504.98  0.3230
504.99  0.3280
505.00  0.3330
505.01  0.3380
505.02  0.3430
505.03  0.3481
505.04  0.3532
505.05  0.3583
505.06  0.3634
505.07  0.3687
505.08  0.3740
505.09  0.3793
505.10  0.3846
505.11  0.3899
505.12  0.3952
505.13  0.4005
505.14  0.4058
505.15  0.4111
505.16  0.4163
505.17  0.4219
505.18  0.4274
505.19  0.4329
505.20  0.4384
505.21  0.4439
505.22  0.4494
505.23  0.4548
505.24  0.4601
505.25  0.4655
505.26  0.4708
505.27  0.4764
505.28  0.4821
505.29  0.4877
505.30  0.4933
505.31  0.4989
505.32  0.5045
505.33  0.5098
505.34  0.5152
505.35  0.5205
505.36  0.5258
505.37  0.5314
505.38  0.5370
505.39  0.5426
505.40  0.5482
505.41  0.5544
505.42  0.5601
505.43  0.5653
505.44  0.5704
505.45  0.5756
505.46  0.5808
505.47  0.5863
505.48  0.5918
505.49  0.5974
505.50  0.6029
505.51  0.6084
505.52  0.6140
505.53  0.6189
505.54  0.6238
505.55  0.6287
505.56  0.6337
505.57  0.6390
505.58  0.6443
505.59  0.6496
505.60  0.6549
505.61  0.6602
505.62  0.6655
505.63  0.6701
505.64  0.6747
505.65  0.6793
505.66  0.6839
505.67  0.6889
505.68  0.6939
505.69  0.6989
505.70  0.7039
505.71  0.7089
505.72  0.7139
505.73  0.7181
505.74  0.7223
505.75  0.7264
505.76  0.7306
505.77  0.7352
505.78  0.7398
505.79  0.7444
505.80  0.7490
505.81  0.7536
505.82  0.7583
505.83  0.7620
505.84  0.7658
505.85  0.7695
505.86  0.7733
505.87  0.7774
505.88  0.7816
505.89  0.7857
505.90  0.7899
505.91  0.7940
505.92  0.7982
505.93  0.8015
505.94  0.8048
505.95  0.8081
505.96  0.8114
505.97  0.8151
505.98  0.8187
505.99  0.8224
506.00  0.8260
506.01  0.8297
506.02  0.8335
506.03  0.8363
506.04  0.8391
506.05  0.8420
506.06  0.8448
506.07  0.8480
506.08  0.8511
506.09  0.8543
506.10  0.8575
506.11  0.8606
506.12  0.8639
506.13  0.8663
506.14  0.8688
506.15  0.8712
506.16  0.8736
506.17  0.8763
506.18  0.8789
506.19  0.8816
506.20  0.8842
506.21  0.8869
506.22  0.8897
506.23  0.8918
506.24  0.8938
506.25  0.8959
506.26  0.8979
506.27  0.9001
506.28  0.9023
506.29  0.9045
506.30  0.9067
506.31  0.9088
506.32  0.9112
506.33  0.9129
506.34  0.9147
506.35  0.9164
506.36  0.9182
506.37  0.9199
506.38  0.9216
506.39  0.9234
506.40  0.9251
506.41  0.9268
506.42  0.9288
506.43  0.9302
506.44  0.9317
506.45  0.9332
506.46  0.9347
506.47  0.9360
506.48  0.9373
506.49  0.9387
506.50  0.9400
506.51  0.9413
506.52  0.9429
506.53  0.9442
506.54  0.9454
506.55  0.9467
506.56  0.9480
506.57  0.9489
506.58  0.9499
506.59  0.9508
506.60  0.9518
506.61  0.9527
506.62  0.9540
506.63  0.9551
506.64  0.9562
506.65  0.9579
506.66  0.9591
506.67  0.9597
506.68  0.9604
506.69  0.9611
506.70  0.9617
506.71  0.9624
506.72  0.9634
506.73  0.9644
506.74  0.9654
506.75  0.9664
506.76  0.9674
506.77  0.9678
506.78  0.9682
506.79  0.9686
506.80  0.9690
506.81  0.9694
506.82  0.9702
506.83  0.9711
506.84  0.9720
506.85  0.9729
506.86  0.9738
506.87  0.9740
506.88  0.9742
506.89  0.9744
506.90  0.9745
506.91  0.9747
506.92  0.9753
506.93  0.9761
506.94  0.9769
506.95  0.9778
506.96  0.9786
506.97  0.9786
506.98  0.9786
506.99  0.9786
507.00  0.9786
507.01  0.9786
507.02  0.9791
507.03  0.9798
507.04  0.9805
507.05  0.9813
507.06  0.9820
507.07  0.9819
507.08  0.9818
507.09  0.9817
507.10  0.9815
507.11  0.9814
507.12  0.9817
507.13  0.9823
507.14  0.9830
507.15  0.9836
507.16  0.9844
507.17  0.9841
507.18  0.9839
507.19  0.9837
507.20  0.9835
507.21  0.9833
507.22  0.9835
507.23  0.9840
507.24  0.9846
507.25  0.9852
507.26  0.9858
507.27  0.9855
507.28  0.9853
507.29  0.9850
507.30  0.9848
507.31  0.9845
507.32  0.9846
507.33  0.9851
507.34  0.9855
507.35  0.9860
507.36  0.9866
507.37  0.9863
507.38  0.9861
507.39  0.9858
507.40  0.9856
507.41  0.9853
507.42  0.9853
507.43  0.9857
507.44  0.9860
507.45  0.9864
507.46  0.9869
507.47  0.9867
507.48  0.9865
507.49  0.9863
507.50  0.9860
507.51  0.9858
507.52  0.9857
507.53  0.9860
507.54  0.9863
507.55  0.9865
507.56  0.9870
507.57  0.9868
507.58  0.9867
507.59  0.9865
507.60  0.9864
507.61  0.9862
507.62  0.9860
507.63  0.9862
507.64  0.9864
507.65  0.9866
507.66  0.9870
507.67  0.9869
507.68  0.9868
507.69  0.9868
507.70  0.9867
507.71  0.9866
507.72  0.9864
507.73  0.9864
507.74  0.9865
507.75  0.9866
507.76  0.9869
507.77  0.9870
507.78  0.9870
507.79  0.9870
507.80  0.9870
507.81  0.9871
507.82  0.9868
507.83  0.9867
507.84  0.9867
507.85  0.9867
507.86  0.9870
507.87  0.9871
507.88  0.9872
507.89  0.9873
507.90  0.9881
507.91  0.9882
507.92  0.9879
507.93  0.9878
507.94  0.9877
507.95  0.9876
507.96  0.9879
507.97  0.9881
507.98  0.9884
507.99  0.9886
508.00  0.9888
508.01  0.9891
508.02  0.9887
508.03  0.9886
508.04  0.9884
508.05  0.9882
508.06  0.9884
508.07  0.9887
508.08  0.9891
508.09  0.9894
508.10  0.9897
508.11  0.9901
508.12  0.9897
508.13  0.9894
508.14  0.9892
508.15  0.9889
508.16  0.9891
508.17  0.9894
508.18  0.9898
508.19  0.9902
508.20  0.9906
508.21  0.9910
508.22  0.9906
508.23  0.9903
508.24  0.9900
508.25  0.9896
508.26  0.9898
508.27  0.9902
508.28  0.9906
508.29  0.9910
508.30  0.9914
508.31  0.9919
508.32  0.9914
508.33  0.9911
508.34  0.9907
508.35  0.9904
508.36  0.9904
508.37  0.9909
508.38  0.9913
508.39  0.9917
508.40  0.9921
508.41  0.9926
508.42  0.9922
508.43  0.9918
508.44  0.9914
508.45  0.9910
508.46  0.9910
508.47  0.9914
508.48  0.9919
508.49  0.9923
508.50  0.9927
508.51  0.9932
508.52  0.9927
508.53  0.9924
508.54  0.9920
508.55  0.9916
508.56  0.9916
508.57  0.9919
508.58  0.9923
508.59  0.9927
508.60  0.9930
508.61  0.9935
508.62  0.9931
508.63  0.9928
508.64  0.9924
508.65  0.9921
508.66  0.9920
508.67  0.9923
508.68  0.9926
508.69  0.9929
508.70  0.9932
508.71  0.9937
508.72  0.9934
508.73  0.9931
508.74  0.9928
508.75  0.9925
508.76  0.9924
508.77  0.9926
508.78  0.9928
508.79  0.9931
508.80  0.9933
508.81  0.9937
508.82  0.9935
508.83  0.9933
508.84  0.9931
508.85  0.9929
508.86  0.9927
508.87  0.9928
508.88  0.9930
508.89  0.9931
508.90  0.9933
508.91  0.9936
508.92  0.9935
508.93  0.9928
508.94  0.9928
508.95  0.9927
508.96  0.9925
508.97  0.9925
508.98  0.9926
508.99  0.9927
509.00  0.9928
509.01  0.9931
509.02  0.9931
509.03  0.9931
509.04  0.9932
509.05  0.9932
509.06  0.9929
509.07  0.9929
509.08  0.9928
509.09  0.9928
509.10  0.9928
509.11  0.9931
509.12  0.9932
509.13  0.9933
509.14  0.9940
509.15  0.9942
509.16  0.9939
509.17  0.9938
509.18  0.9937
509.19  0.9936
509.20  0.9935
509.21  0.9938
509.22  0.9940
509.23  0.9942
509.24  0.9945
509.25  0.9948
509.26  0.9944
509.27  0.9942
509.28  0.9940
509.29  0.9939
509.30  0.9937
509.31  0.9939
509.32  0.9942
509.33  0.9945
509.34  0.9949
509.35  0.9952
509.36  0.9948
509.37  0.9946
509.38  0.9943
509.39  0.9940
509.40  0.9938
509.41  0.9939
509.42  0.9943
509.43  0.9947
509.44  0.9951
509.45  0.9955
509.46  0.9951
509.47  0.9948
509.48  0.9945
509.49  0.9942
509.50  0.9938
509.51  0.9939
509.52  0.9944
509.53  0.9948
509.54  0.9952
509.55  0.9957
509.56  0.9952
509.57  0.9949
509.58  0.9945
509.59  0.9942
509.60  0.9938
509.61  0.9938
509.62  0.9943
509.63  0.9947
509.64  0.9951
509.65  0.9956
509.66  0.9952
509.67  0.9948
509.68  0.9944
509.69  0.9940
509.70  0.9937
509.71  0.9937
509.72  0.9941
509.73  0.9945
509.74  0.9949
509.75  0.9954
509.76  0.9950
509.77  0.9946
509.78  0.9942
509.79  0.9938
509.80  0.9935
509.81  0.9934
509.82  0.9938
509.83  0.9941
509.84  0.9945
509.85  0.9950
509.86  0.9946
509.87  0.9943
509.88  0.9939
509.89  0.9936
509.90  0.9932
509.91  0.9931
509.92  0.9934
509.93  0.9937
509.94  0.9941
509.95  0.9945
509.96  0.9942
509.97  0.9939
509.98  0.9936
509.99  0.9934
510.00  0.9931
510.01  0.9929
510.02  0.9931
510.03  0.9934
510.04  0.9936
510.05  0.9940
510.06  0.9938
510.07  0.9936
510.08  0.9933
510.09  0.9931
510.10  0.9929
510.11  0.9927
510.12  0.9929
510.13  0.9930
510.14  0.9931
510.15  0.9935
510.16  0.9934
510.17  0.9927
510.18  0.9926
510.19  0.9925
510.20  0.9924
510.21  0.9922
510.22  0.9923
510.23  0.9923
510.24  0.9924
510.25  0.9927
510.26  0.9927
510.27  0.9928
510.28  0.9928
510.29  0.9928
510.30  0.9928
510.31  0.9925
510.32  0.9925
510.33  0.9924
510.34  0.9924
510.35  0.9927
510.36  0.9928
510.37  0.9929
510.38  0.9930
510.39  0.9937
510.40  0.9939
510.41  0.9936
510.42  0.9935
510.43  0.9934
510.44  0.9932
510.45  0.9935
510.46  0.9937
510.47  0.9940
510.48  0.9942
510.49  0.9944
510.50  0.9947
510.51  0.9943
510.52  0.9941
510.53  0.9939
510.54  0.9938
510.55  0.9940
510.56  0.9943
510.57  0.9946
510.58  0.9949
510.59  0.9952
510.60  0.9956
510.61  0.9952
510.62  0.9949
510.63  0.9946
510.64  0.9944
510.65  0.9945
510.66  0.9949
510.67  0.9953
510.68  0.9957
510.69  0.9960
510.70  0.9965
510.71  0.9960
510.72  0.9957
510.73  0.9954
510.74  0.9950
510.75  0.9951
510.76  0.9955
510.77  0.9960
510.78  0.9964
510.79  0.9968
510.80  0.9972
510.81  0.9968
510.82  0.9964
510.83  0.9961
510.84  0.9957
510.85  0.9957
510.86  0.9962
510.87  0.9966
510.88  0.9970
510.89  0.9974
510.90  0.9979
510.91  0.9974
510.92  0.9971
510.93  0.9967
510.94  0.9963
510.95  0.9963
510.96  0.9967
510.97  0.9971
510.98  0.9975
510.99  0.9979
511.00  0.9984
511.01  0.9979
511.02  0.9975
511.03  0.9972
511.04  0.9968
511.05  0.9967
511.06  0.9971
511.07  0.9974
511.08  0.9978
511.09  0.9981
511.10  0.9986
511.11  0.9982
511.12  0.9979
511.13  0.9975
511.14  0.9972
511.15  0.9971
511.16  0.9974
511.17  0.9977
511.18  0.9980
511.19  0.9982
511.20  0.9987
511.21  0.9984
511.22  0.9981
511.23  0.9978
511.24  0.9975
511.25  0.9973
511.26  0.9976
511.27  0.9978
511.28  0.9980
511.29  0.9982
511.30  0.9986
511.31  0.9984
511.32  0.9982
511.33  0.9980
511.34  0.9978
511.35  0.9976
511.36  0.9977
511.37  0.9979
511.38  0.9980
511.39  0.9981
511.40  0.9985
511.41  0.9984
511.42  0.9977
511.43  0.9976
511.44  0.9975
511.45  0.9973
511.46  0.9973
511.47  0.9974
511.48  0.9975
511.49  0.9975
511.50  0.9979
511.51  0.9979
511.52  0.9979
511.53  0.9979
511.54  0.9979
511.55  0.9976
511.56  0.9976
511.57  0.9976
511.58  0.9975
511.59  0.9975
511.60  0.9978
511.61  0.9979
511.62  0.9980
511.63  0.9987
511.64  0.9989
511.65  0.9985
511.66  0.9984
511.67  0.9983
511.68  0.9982
511.69  0.9981
511.70  0.9984
511.71  0.9986
511.72  0.9988
511.73  0.9991
511.74  0.9993
511.75  0.9990
511.76  0.9988
511.77  0.9986
511.78  0.9984
511.79  0.9982
511.80  0.9984
511.81  0.9987
511.82  0.9990
511.83  0.9994
511.84  0.9997
511.85  0.9993
511.86  0.9990
511.87  0.9988
511.88  0.9985
511.89  0.9982
511.90  0.9984
511.91  0.9988
511.92  0.9991
511.93  0.9995
511.94  0.9999
511.95  0.9995
511.96  0.9992
511.97  0.9989
511.98  0.9985
511.99  0.9982
512.00  0.9983
512.01  0.9987
512.02  0.9991
512.03  0.9995
512.04  1.0000
512.05  0.9995
512.06  0.9992
512.07  0.9988
512.08  0.9984
512.09  0.9981
512.10  0.9981
512.11  0.9985
512.12  0.9990
512.13  0.9994
512.14  0.9999
512.15  0.9994
512.16  0.9990
512.17  0.9986
512.18  0.9982
512.19  0.9979
512.20  0.9978
512.21  0.9982
512.22  0.9986
512.23  0.9990
512.24  0.9995
512.25  0.9991
512.26  0.9987
512.27  0.9983
512.28  0.9980
512.29  0.9976
512.30  0.9975
512.31  0.9979
512.32  0.9982
512.33  0.9986
512.34  0.9991
512.35  0.9987
512.36  0.9983
512.37  0.9980
512.38  0.9976
512.39  0.9973
512.40  0.9972
512.41  0.9975
512.42  0.9977
512.43  0.9980
512.44  0.9985
512.45  0.9982
512.46  0.9979
512.47  0.9976
512.48  0.9973
512.49  0.9970
512.50  0.9969
512.51  0.9971
512.52  0.9973
512.53  0.9975
512.54  0.9979
512.55  0.9977
512.56  0.9975
512.57  0.9973
512.58  0.9971
512.59  0.9969
512.60  0.9967
512.61  0.9968
512.62  0.9969
512.63  0.9971
512.64  0.9974
512.65  0.9973
512.66  0.9966
512.67  0.9965
512.68  0.9965
512.69  0.9964
512.70  0.9961
512.71  0.9962
512.72  0.9963
512.73  0.9963
512.74  0.9967
512.75  0.9967
512.76  0.9967
512.77  0.9967
512.78  0.9967
512.79  0.9967
512.80  0.9964
512.81  0.9964
512.82  0.9964
512.83  0.9963
512.84  0.9966
512.85  0.9967
512.86  0.9968
512.87  0.9969
512.88  0.9971
512.89  0.9972
512.90  0.9968
512.91  0.9967
512.92  0.9965
512.93  0.9964
512.94  0.9966
512.95  0.9968
512.96  0.9970
512.97  0.9972
512.98  0.9974
512.99  0.9976
513.00  0.9972
513.01  0.9969
513.02  0.9967
513.03  0.9965
513.04  0.9966
513.05  0.9969
513.06  0.9971
513.07  0.9974
513.08  0.9977
513.09  0.9979
513.10  0.9974
513.11  0.9971
513.12  0.9968
513.13  0.9964
513.14  0.9965
513.15  0.9968
513.16  0.9971
513.17  0.9974
513.18  0.9977
513.19  0.9980
513.20  0.9974
513.21  0.9970
513.22  0.9966
513.23  0.9961
513.24  0.9961
513.25  0.9964
513.26  0.9967
513.27  0.9970
513.28  0.9973
513.29  0.9976
513.30  0.9970
513.31  0.9964
513.32  0.9959
513.33  0.9954
513.34  0.9953
513.35  0.9955
513.36  0.9958
513.37  0.9960
513.38  0.9963
513.39  0.9965
513.40  0.9958
513.41  0.9952
513.42  0.9946
513.43  0.9940
513.44  0.9937
513.45  0.9939
513.46  0.9941
513.47  0.9943
513.48  0.9944
513.49  0.9946
513.50  0.9938
513.51  0.9931
513.52  0.9924
513.53  0.9917
513.54  0.9913
513.55  0.9914
513.56  0.9914
513.57  0.9914
513.58  0.9915
513.59  0.9915
513.60  0.9907
513.61  0.9899
513.62  0.9891
513.63  0.9883
513.64  0.9878
513.65  0.9876
513.66  0.9875
513.67  0.9874
513.68  0.9872
513.69  0.9871
513.70  0.9862
513.71  0.9853
513.72  0.9844
513.73  0.9835
513.74  0.9828
513.75  0.9824
513.76  0.9821
513.77  0.9817
513.78  0.9813
513.79  0.9810
513.80  0.9800
513.81  0.9790
513.82  0.9780
513.83  0.9770
513.84  0.9761
513.85  0.9754
513.86  0.9748
513.87  0.9741
513.88  0.9735
513.89  0.9729
513.90  0.9718
513.91  0.9701
513.92  0.9690
513.93  0.9679
513.94  0.9667
513.95  0.9657
513.96  0.9648
513.97  0.9639
513.98  0.9629
513.99  0.9620
514.00  0.9608
514.01  0.9595
514.02  0.9583
514.03  0.9570
514.04  0.9554
514.05  0.9541
514.06  0.9528
514.07  0.9515
514.08  0.9502
514.09  0.9489
514.10  0.9475
514.11  0.9460
514.12  0.9445
514.13  0.9431
514.14  0.9411
514.15  0.9394
514.16  0.9377
514.17  0.9360
514.18  0.9342
514.19  0.9325
514.20  0.9308
514.21  0.9291
514.22  0.9273
514.23  0.9256
514.24  0.9232
514.25  0.9210
514.26  0.9189
514.27  0.9167
514.28  0.9145
514.29  0.9123
514.30  0.9103
514.31  0.9082
514.32  0.9062
514.33  0.9041
514.34  0.9013
514.35  0.8986
514.36  0.8960
514.37  0.8933
514.38  0.8906
514.39  0.8880
514.40  0.8855
514.41  0.8831
514.42  0.8807
514.43  0.8782
514.44  0.8750
514.45  0.8718
514.46  0.8686
514.47  0.8654
514.48  0.8623
514.49  0.8591
514.50  0.8562
514.51  0.8534
514.52  0.8505
514.53  0.8476
514.54  0.8439
514.55  0.8402
514.56  0.8365
514.57  0.8328
514.58  0.8291
514.59  0.8254
514.60  0.8221
514.61  0.8188
514.62  0.8155
514.63  0.8122
514.64  0.8079
514.65  0.8037
514.66  0.7995
514.67  0.7953
514.68  0.7911
514.69  0.7869
514.70  0.7832
514.71  0.7794
514.72  0.7756
514.73  0.7718
514.74  0.7671
514.75  0.7625
514.76  0.7578
514.77  0.7532
514.78  0.7485
514.79  0.7439
514.80  0.7396
514.81  0.7354
514.82  0.7312
514.83  0.7269
514.84  0.7218
514.85  0.7168
514.86  0.7117
514.87  0.7067
514.88  0.7016
514.89  0.6965
514.90  0.6919
514.91  0.6872
514.92  0.6826
514.93  0.6780
514.94  0.6726
514.95  0.6672
514.96  0.6618
514.97  0.6564
514.98  0.6510
514.99  0.6456
515.00  0.6407
515.01  0.6357
515.02  0.6307
515.03  0.6257
515.04  0.6200
515.05  0.6144
515.06  0.6088
515.07  0.6032
515.08  0.5976
515.09  0.5920
515.10  0.5868
515.11  0.5815
515.12  0.5762
515.13  0.5710
515.14  0.5653
515.15  0.5589
515.16  0.5532
515.17  0.5475
515.18  0.5418
515.19  0.5361
515.20  0.5307
515.21  0.5254
515.22  0.5200
515.23  0.5146
515.24  0.5089
515.25  0.5032
515.26  0.4974
515.27  0.4917
515.28  0.4860
515.29  0.4803
515.30  0.4749
515.31  0.4694
515.32  0.4640
515.33  0.4585
515.34  0.4529
515.35  0.4473
515.36  0.4417
515.37  0.4361
515.38  0.4305
515.39  0.4249
515.40  0.4195
515.41  0.4141
515.42  0.4088
515.43  0.4034
515.44  0.3980
515.45  0.3926
515.46  0.3872
515.47  0.3818
515.48  0.3764
515.49  0.3710
515.50  0.3658
515.51  0.3606
515.52  0.3554
515.53  0.3502
515.54  0.3451
515.55  0.3400
515.56  0.3349
515.57  0.3299
515.58  0.3248
515.59  0.3197
515.60  0.3147
515.61  0.3098
515.62  0.3049
515.63  0.2999
515.64  0.2952
515.65  0.2905
515.66  0.2858
515.67  0.2811
515.68  0.2764
515.69  0.2717
515.70  0.2671
515.71  0.2625
515.72  0.2579
515.73  0.2534
515.74  0.2491
515.75  0.2448
515.76  0.2405
515.77  0.2363
515.78  0.2320
515.79  0.2277
515.80  0.2236
515.81  0.2194
515.82  0.2152
515.83  0.2110
515.84  0.2072
515.85  0.2034
515.86  0.1996
515.87  0.1958
515.88  0.1920
515.89  0.1882
515.90  0.1845
515.91  0.1807
515.92  0.1770
515.93  0.1733
515.94  0.1699
515.95  0.1666
515.96  0.1633
515.97  0.1600
515.98  0.1566
515.99  0.1533
516.00  0.1500
516.01  0.1468
516.02  0.1435
516.03  0.1402
516.04  0.1374
516.05  0.1345
516.06  0.1316
516.07  0.1288
516.08  0.1259
516.09  0.1231
516.10  0.1203
516.11  0.1175
516.12  0.1146
516.13  0.1118
516.14  0.1094
516.15  0.1070
516.16  0.1046
516.17  0.1022
516.18  0.0998
516.19  0.0974
516.20  0.0950
516.21  0.0926
516.22  0.0903
516.23  0.0879
516.24  0.0859
516.25  0.0839
516.26  0.0819
516.27  0.0799
516.28  0.0779
516.29  0.0759
516.30  0.0740
516.31  0.0720
516.32  0.0700
516.33  0.0680
516.34  0.0664
516.35  0.0648
516.36  0.0632
516.37  0.0616
516.38  0.0599
516.39  0.0583
516.40  0.0561
516.41  0.0545
516.42  0.0530
516.43  0.0514
516.44  0.0501
516.45  0.0488
516.46  0.0476
516.47  0.0463
516.48  0.0450
516.49  0.0438
516.50  0.0425
516.51  0.0412
516.52  0.0399
516.53  0.0387
516.54  0.0377
516.55  0.0367
516.56  0.0357
516.57  0.0347
516.58  0.0337
516.59  0.0327
516.60  0.0317
516.61  0.0307
516.62  0.0297
516.63  0.0287
516.64  0.0279
516.65  0.0271
516.66  0.0263
516.67  0.0256
516.68  0.0248
516.69  0.0240
516.70  0.0233
516.71  0.0225
516.72  0.0217
516.73  0.0209
516.74  0.0203
516.75  0.0198
516.76  0.0192
516.77  0.0186
516.78  0.0180
516.79  0.0174
516.80  0.0168
516.81  0.0162
516.82  0.0156
516.83  0.0150
516.84  0.0146
516.85  0.0142
516.86  0.0137
516.87  0.0133
516.88  0.0128
516.89  0.0124
516.90  0.0120
516.91  0.0115
516.92  0.0111
516.93  0.0106
516.94  0.0103
516.95  0.0100
516.96  0.0097
516.97  0.0094
516.98  0.0090
516.99  0.0087
517.00  0.0084
517.01  0.0081
517.02  0.0077
517.03  0.0074
517.04  0.0072
517.05  0.0070
517.06  0.0067
517.07  0.0065
517.08  0.0063
517.09  0.0060
517.10  0.0058
517.11  0.0056
517.12  0.0053
517.13  0.0051
517.14  0.0049
517.15  0.0048
517.16  0.0046
517.17  0.0044
517.18  0.0043
517.19  0.0041
517.20  0.0039
517.21  0.0038
517.22  0.0036
517.23  0.0034
517.24  0.0033
517.25  0.0032
517.26  0.0031
517.27  0.0030
517.28  0.0029
517.29  0.0028
517.30  0.0026
517.31  0.0025
517.32  0.0024
517.33  0.0023
517.34  0.0022
517.35  0.0021
517.36  0.0021
517.37  0.0020
517.38  0.0019
517.39  0.0018
517.40  0.0017
517.41  0.0017
517.42  0.0016
517.43  0.0015
517.44  0.0015
517.45  0.0014
517.46  0.0013
517.47  0.0013
517.48  0.0012
517.49  0.0012
517.50  0.0011
517.51  0.0011
517.52  0.0010
517.53  0.0010
517.54  0.0009
517.55  0.0009
517.56  0.0009
517.57  0.0008
517.58  0.0008
517.59  0.0008
517.60  0.0007
517.61  0.0007
517.62  0.0007
517.63  0.0006
