# Provided by ESA in 10/2012
# Important Notes:
# The data contained here correspond to the OLCI Spectral Model CDR derived in 2011.
# The data have been calculated for the camera 4, pointing nadir.
389.84  0.0004
389.85  0.0005
389.86  0.0005
389.87  0.0005
389.88  0.0005
389.89  0.0006
389.90  0.0006
389.91  0.0006
389.92  0.0006
389.93  0.0007
389.94  0.0007
389.95  0.0007
389.96  0.0008
389.97  0.0008
389.98  0.0008
389.99  0.0009
390.00  0.0009
390.01  0.0010
390.02  0.0010
390.03  0.0010
390.04  0.0011
390.05  0.0011
390.06  0.0012
390.07  0.0012
390.08  0.0013
390.09  0.0014
390.10  0.0014
390.11  0.0015
390.12  0.0015
390.13  0.0016
390.14  0.0016
390.15  0.0017
390.16  0.0018
390.17  0.0019
390.18  0.0020
390.19  0.0020
390.20  0.0021
390.21  0.0022
390.22  0.0023
390.23  0.0024
390.24  0.0025
390.25  0.0026
390.26  0.0027
390.27  0.0028
390.28  0.0029
390.29  0.0031
390.30  0.0032
390.31  0.0033
390.32  0.0034
390.33  0.0035
390.34  0.0037
390.35  0.0038
390.36  0.0040
390.37  0.0042
390.38  0.0043
390.39  0.0045
390.40  0.0047
390.41  0.0048
390.42  0.0050
390.43  0.0052
390.44  0.0053
390.45  0.0056
390.46  0.0058
390.47  0.0060
390.48  0.0063
390.49  0.0065
390.50  0.0067
390.51  0.0070
390.52  0.0072
390.53  0.0074
390.54  0.0077
390.55  0.0080
390.56  0.0083
390.57  0.0086
390.58  0.0089
390.59  0.0093
390.60  0.0096
390.61  0.0099
390.62  0.0102
390.63  0.0105
390.64  0.0109
390.65  0.0113
390.66  0.0117
390.67  0.0122
390.68  0.0126
390.69  0.0130
390.70  0.0134
390.71  0.0139
390.72  0.0143
390.73  0.0147
390.74  0.0152
390.75  0.0157
390.76  0.0163
390.77  0.0168
390.78  0.0174
390.79  0.0180
390.80  0.0185
390.81  0.0191
390.82  0.0197
390.83  0.0202
390.84  0.0208
390.85  0.0215
390.86  0.0223
390.87  0.0230
390.88  0.0237
390.89  0.0245
390.90  0.0252
390.91  0.0259
390.92  0.0267
390.93  0.0274
390.94  0.0281
390.95  0.0291
390.96  0.0300
390.97  0.0309
390.98  0.0319
390.99  0.0328
391.00  0.0337
391.01  0.0347
391.02  0.0356
391.03  0.0365
391.04  0.0375
391.05  0.0386
391.06  0.0398
391.07  0.0414
391.08  0.0426
391.09  0.0438
391.10  0.0450
391.11  0.0462
391.12  0.0474
391.13  0.0486
391.14  0.0498
391.15  0.0512
391.16  0.0527
391.17  0.0542
391.18  0.0556
391.19  0.0571
391.20  0.0586
391.21  0.0600
391.22  0.0615
391.23  0.0630
391.24  0.0645
391.25  0.0662
391.26  0.0680
391.27  0.0698
391.28  0.0715
391.29  0.0733
391.30  0.0751
391.31  0.0769
391.32  0.0787
391.33  0.0805
391.34  0.0822
391.35  0.0843
391.36  0.0864
391.37  0.0885
391.38  0.0906
391.39  0.0928
391.40  0.0949
391.41  0.0970
391.42  0.0991
391.43  0.1013
391.44  0.1034
391.45  0.1058
391.46  0.1083
391.47  0.1107
391.48  0.1132
391.49  0.1157
391.50  0.1182
391.51  0.1206
391.52  0.1231
391.53  0.1256
391.54  0.1281
391.55  0.1309
391.56  0.1337
391.57  0.1365
391.58  0.1393
391.59  0.1422
391.60  0.1450
391.61  0.1479
391.62  0.1507
391.63  0.1536
391.64  0.1564
391.65  0.1596
391.66  0.1627
391.67  0.1658
391.68  0.1690
391.69  0.1722
391.70  0.1755
391.71  0.1787
391.72  0.1819
391.73  0.1851
391.74  0.1883
391.75  0.1918
391.76  0.1952
391.77  0.1987
391.78  0.2022
391.79  0.2058
391.80  0.2093
391.81  0.2129
391.82  0.2164
391.83  0.2200
391.84  0.2235
391.85  0.2273
391.86  0.2310
391.87  0.2347
391.88  0.2386
391.89  0.2424
391.90  0.2463
391.91  0.2501
391.92  0.2540
391.93  0.2578
391.94  0.2617
391.95  0.2656
391.96  0.2696
391.97  0.2735
391.98  0.2776
391.99  0.2817
392.00  0.2858
392.01  0.2899
392.02  0.2940
392.03  0.2981
392.04  0.3022
392.05  0.3063
392.06  0.3104
392.07  0.3145
392.08  0.3188
392.09  0.3231
392.10  0.3274
392.11  0.3316
392.12  0.3359
392.13  0.3402
392.14  0.3445
392.15  0.3487
392.16  0.3528
392.17  0.3570
392.18  0.3614
392.19  0.3657
392.20  0.3701
392.21  0.3745
392.22  0.3789
392.23  0.3833
392.24  0.3877
392.25  0.3918
392.26  0.3960
392.27  0.4001
392.28  0.4045
392.29  0.4089
392.30  0.4133
392.31  0.4181
392.32  0.4225
392.33  0.4270
392.34  0.4314
392.35  0.4355
392.36  0.4395
392.37  0.4436
392.38  0.4479
392.39  0.4523
392.40  0.4566
392.41  0.4610
392.42  0.4653
392.43  0.4697
392.44  0.4740
392.45  0.4779
392.46  0.4818
392.47  0.4857
392.48  0.4899
392.49  0.4941
392.50  0.4983
392.51  0.5025
392.52  0.5067
392.53  0.5109
392.54  0.5151
392.55  0.5188
392.56  0.5224
392.57  0.5261
392.58  0.5300
392.59  0.5340
392.60  0.5379
392.61  0.5419
392.62  0.5459
392.63  0.5499
392.64  0.5539
392.65  0.5573
392.66  0.5606
392.67  0.5640
392.68  0.5676
392.69  0.5713
392.70  0.5750
392.71  0.5787
392.72  0.5824
392.73  0.5861
392.74  0.5898
392.75  0.5928
392.76  0.5959
392.77  0.5989
392.78  0.6022
392.79  0.6056
392.80  0.6089
392.81  0.6122
392.82  0.6156
392.83  0.6190
392.84  0.6224
392.85  0.6251
392.86  0.6278
392.87  0.6305
392.88  0.6335
392.89  0.6364
392.90  0.6394
392.91  0.6424
392.92  0.6454
392.93  0.6485
392.94  0.6515
392.95  0.6539
392.96  0.6562
392.97  0.6585
392.98  0.6611
392.99  0.6637
393.00  0.6663
393.01  0.6689
393.02  0.6716
393.03  0.6743
393.04  0.6770
393.05  0.6790
393.06  0.6810
393.07  0.6831
393.08  0.6853
393.09  0.6875
393.10  0.6897
393.11  0.6919
393.12  0.6943
393.13  0.6966
393.14  0.6989
393.15  0.7007
393.16  0.7024
393.17  0.7042
393.18  0.7060
393.19  0.7079
393.20  0.7097
393.21  0.7116
393.22  0.7135
393.23  0.7155
393.24  0.7175
393.25  0.7190
393.26  0.7205
393.27  0.7221
393.28  0.7236
393.29  0.7251
393.30  0.7266
393.31  0.7281
393.32  0.7297
393.33  0.7314
393.34  0.7331
393.35  0.7344
393.36  0.7357
393.37  0.7370
393.38  0.7382
393.39  0.7394
393.40  0.7406
393.41  0.7418
393.42  0.7432
393.43  0.7446
393.44  0.7460
393.45  0.7471
393.46  0.7483
393.47  0.7494
393.48  0.7503
393.49  0.7512
393.50  0.7521
393.51  0.7530
393.52  0.7542
393.53  0.7553
393.54  0.7565
393.55  0.7575
393.56  0.7590
393.57  0.7600
393.58  0.7607
393.59  0.7614
393.60  0.7621
393.61  0.7628
393.62  0.7637
393.63  0.7647
393.64  0.7656
393.65  0.7666
393.66  0.7675
393.67  0.7685
393.68  0.7689
393.69  0.7694
393.70  0.7699
393.71  0.7704
393.72  0.7711
393.73  0.7719
393.74  0.7727
393.75  0.7735
393.76  0.7744
393.77  0.7753
393.78  0.7756
393.79  0.7759
393.80  0.7762
393.81  0.7765
393.82  0.7771
393.83  0.7777
393.84  0.7784
393.85  0.7792
393.86  0.7800
393.87  0.7808
393.88  0.7810
393.89  0.7811
393.90  0.7813
393.91  0.7814
393.92  0.7819
393.93  0.7824
393.94  0.7829
393.95  0.7837
393.96  0.7844
393.97  0.7852
393.98  0.7852
393.99  0.7853
394.00  0.7853
394.01  0.7854
394.02  0.7858
394.03  0.7862
394.04  0.7865
394.05  0.7872
394.06  0.7879
394.07  0.7886
394.08  0.7886
394.09  0.7886
394.10  0.7886
394.11  0.7886
394.12  0.7889
394.13  0.7892
394.14  0.7895
394.15  0.7901
394.16  0.7907
394.17  0.7914
394.18  0.7913
394.19  0.7913
394.20  0.7912
394.21  0.7912
394.22  0.7914
394.23  0.7916
394.24  0.7918
394.25  0.7923
394.26  0.7929
394.27  0.7935
394.28  0.7935
394.29  0.7934
394.30  0.7934
394.31  0.7933
394.32  0.7934
394.33  0.7936
394.34  0.7937
394.35  0.7942
394.36  0.7946
394.37  0.7952
394.38  0.7952
394.39  0.7952
394.40  0.7952
394.41  0.7951
394.42  0.7952
394.43  0.7953
394.44  0.7954
394.45  0.7958
394.46  0.7961
394.47  0.7967
394.48  0.7967
394.49  0.7967
394.50  0.7968
394.51  0.7968
394.52  0.7968
394.53  0.7968
394.54  0.7969
394.55  0.7972
394.56  0.7975
394.57  0.7980
394.58  0.7981
394.59  0.7982
394.60  0.7983
394.61  0.7984
394.62  0.7983
394.63  0.7983
394.64  0.7983
394.65  0.7985
394.66  0.7987
394.67  0.7992
394.68  0.7993
394.69  0.7995
394.70  0.7997
394.71  0.7999
394.72  0.7998
394.73  0.7997
394.74  0.7996
394.75  0.7998
394.76  0.7999
394.77  0.8003
394.78  0.8006
394.79  0.8013
394.80  0.8016
394.81  0.8019
394.82  0.8018
394.83  0.8017
394.84  0.8016
394.85  0.8017
394.86  0.8018
394.87  0.8021
394.88  0.8025
394.89  0.8029
394.90  0.8032
394.91  0.8036
394.92  0.8035
394.93  0.8033
394.94  0.8032
394.95  0.8032
394.96  0.8032
394.97  0.8036
394.98  0.8040
394.99  0.8044
395.00  0.8048
395.01  0.8053
395.02  0.8051
395.03  0.8050
395.04  0.8048
395.05  0.8048
395.06  0.8047
395.07  0.8050
395.08  0.8055
395.09  0.8059
395.10  0.8065
395.11  0.8070
395.12  0.8068
395.13  0.8066
395.14  0.8064
395.15  0.8063
395.16  0.8062
395.17  0.8064
395.18  0.8069
395.19  0.8075
395.20  0.8080
395.21  0.8085
395.22  0.8083
395.23  0.8081
395.24  0.8079
395.25  0.8078
395.26  0.8077
395.27  0.8079
395.28  0.8084
395.29  0.8089
395.30  0.8095
395.31  0.8100
395.32  0.8098
395.33  0.8096
395.34  0.8094
395.35  0.8093
395.36  0.8091
395.37  0.8093
395.38  0.8098
395.39  0.8103
395.40  0.8108
395.41  0.8114
395.42  0.8112
395.43  0.8110
395.44  0.8108
395.45  0.8107
395.46  0.8106
395.47  0.8107
395.48  0.8111
395.49  0.8116
395.50  0.8121
395.51  0.8127
395.52  0.8126
395.53  0.8124
395.54  0.8123
395.55  0.8122
395.56  0.8120
395.57  0.8121
395.58  0.8125
395.59  0.8129
395.60  0.8135
395.61  0.8140
395.62  0.8139
395.63  0.8138
395.64  0.8137
395.65  0.8137
395.66  0.8136
395.67  0.8136
395.68  0.8140
395.69  0.8143
395.70  0.8148
395.71  0.8153
395.72  0.8153
395.73  0.8153
395.74  0.8153
395.75  0.8153
395.76  0.8153
395.77  0.8153
395.78  0.8156
395.79  0.8158
395.80  0.8163
395.81  0.8168
395.82  0.8168
395.83  0.8169
395.84  0.8170
395.85  0.8166
395.86  0.8167
395.87  0.8167
395.88  0.8169
395.89  0.8171
395.90  0.8175
395.91  0.8180
395.92  0.8182
395.93  0.8184
395.94  0.8185
395.95  0.8187
395.96  0.8189
395.97  0.8188
395.98  0.8190
395.99  0.8191
396.00  0.8195
396.01  0.8199
396.02  0.8202
396.03  0.8209
396.04  0.8212
396.05  0.8215
396.06  0.8218
396.07  0.8217
396.08  0.8218
396.09  0.8219
396.10  0.8222
396.11  0.8226
396.12  0.8230
396.13  0.8233
396.14  0.8237
396.15  0.8241
396.16  0.8245
396.17  0.8243
396.18  0.8244
396.19  0.8244
396.20  0.8247
396.21  0.8250
396.22  0.8255
396.23  0.8259
396.24  0.8264
396.25  0.8268
396.26  0.8273
396.27  0.8271
396.28  0.8270
396.29  0.8270
396.30  0.8273
396.31  0.8276
396.32  0.8281
396.33  0.8286
396.34  0.8291
396.35  0.8296
396.36  0.8301
396.37  0.8299
396.38  0.8298
396.39  0.8297
396.40  0.8300
396.41  0.8302
396.42  0.8307
396.43  0.8312
396.44  0.8318
396.45  0.8323
396.46  0.8329
396.47  0.8327
396.48  0.8326
396.49  0.8324
396.50  0.8326
396.51  0.8328
396.52  0.8334
396.53  0.8339
396.54  0.8345
396.55  0.8350
396.56  0.8356
396.57  0.8354
396.58  0.8352
396.59  0.8351
396.60  0.8353
396.61  0.8354
396.62  0.8359
396.63  0.8364
396.64  0.8370
396.65  0.8376
396.66  0.8382
396.67  0.8380
396.68  0.8378
396.69  0.8377
396.70  0.8378
396.71  0.8379
396.72  0.8384
396.73  0.8389
396.74  0.8394
396.75  0.8400
396.76  0.8406
396.77  0.8404
396.78  0.8403
396.79  0.8402
396.80  0.8402
396.81  0.8403
396.82  0.8407
396.83  0.8412
396.84  0.8417
396.85  0.8422
396.86  0.8428
396.87  0.8427
396.88  0.8426
396.89  0.8426
396.90  0.8426
396.91  0.8426
396.92  0.8430
396.93  0.8433
396.94  0.8439
396.95  0.8444
396.96  0.8449
396.97  0.8449
396.98  0.8449
396.99  0.8449
397.00  0.8449
397.01  0.8449
397.02  0.8451
397.03  0.8454
397.04  0.8459
397.05  0.8464
397.06  0.8469
397.07  0.8469
397.08  0.8465
397.09  0.8466
397.10  0.8466
397.11  0.8466
397.12  0.8468
397.13  0.8470
397.14  0.8475
397.15  0.8479
397.16  0.8484
397.17  0.8486
397.18  0.8488
397.19  0.8489
397.20  0.8489
397.21  0.8488
397.22  0.8489
397.23  0.8491
397.24  0.8495
397.25  0.8499
397.26  0.8503
397.27  0.8506
397.28  0.8513
397.29  0.8516
397.30  0.8515
397.31  0.8514
397.32  0.8515
397.33  0.8516
397.34  0.8520
397.35  0.8524
397.36  0.8528
397.37  0.8531
397.38  0.8535
397.39  0.8539
397.40  0.8537
397.41  0.8536
397.42  0.8536
397.43  0.8536
397.44  0.8540
397.45  0.8543
397.46  0.8547
397.47  0.8551
397.48  0.8556
397.49  0.8560
397.50  0.8558
397.51  0.8557
397.52  0.8556
397.53  0.8556
397.54  0.8559
397.55  0.8562
397.56  0.8565
397.57  0.8570
397.58  0.8575
397.59  0.8580
397.60  0.8578
397.61  0.8576
397.62  0.8575
397.63  0.8574
397.64  0.8576
397.65  0.8579
397.66  0.8581
397.67  0.8587
397.68  0.8592
397.69  0.8598
397.70  0.8596
397.71  0.8593
397.72  0.8592
397.73  0.8591
397.74  0.8593
397.75  0.8595
397.76  0.8597
397.77  0.8602
397.78  0.8608
397.79  0.8614
397.80  0.8611
397.81  0.8609
397.82  0.8608
397.83  0.8606
397.84  0.8608
397.85  0.8609
397.86  0.8611
397.87  0.8616
397.88  0.8621
397.89  0.8627
397.90  0.8625
397.91  0.8623
397.92  0.8622
397.93  0.8620
397.94  0.8622
397.95  0.8623
397.96  0.8624
397.97  0.8629
397.98  0.8634
397.99  0.8639
398.00  0.8638
398.01  0.8636
398.02  0.8635
398.03  0.8634
398.04  0.8635
398.05  0.8635
398.06  0.8636
398.07  0.8640
398.08  0.8645
398.09  0.8650
398.10  0.8649
398.11  0.8648
398.12  0.8648
398.13  0.8647
398.14  0.8647
398.15  0.8648
398.16  0.8648
398.17  0.8651
398.18  0.8655
398.19  0.8660
398.20  0.8660
398.21  0.8660
398.22  0.8660
398.23  0.8660
398.24  0.8660
398.25  0.8660
398.26  0.8660
398.27  0.8663
398.28  0.8666
398.29  0.8670
398.30  0.8671
398.31  0.8672
398.32  0.8668
398.33  0.8669
398.34  0.8668
398.35  0.8668
398.36  0.8668
398.37  0.8670
398.38  0.8672
398.39  0.8677
398.40  0.8679
398.41  0.8681
398.42  0.8683
398.43  0.8684
398.44  0.8684
398.45  0.8683
398.46  0.8682
398.47  0.8683
398.48  0.8685
398.49  0.8689
398.50  0.8692
398.51  0.8700
398.52  0.8703
398.53  0.8706
398.54  0.8705
398.55  0.8703
398.56  0.8702
398.57  0.8703
398.58  0.8704
398.59  0.8708
398.60  0.8712
398.61  0.8716
398.62  0.8720
398.63  0.8724
398.64  0.8722
398.65  0.8721
398.66  0.8719
398.67  0.8719
398.68  0.8719
398.69  0.8723
398.70  0.8727
398.71  0.8732
398.72  0.8737
398.73  0.8741
398.74  0.8740
398.75  0.8738
398.76  0.8736
398.77  0.8735
398.78  0.8735
398.79  0.8738
398.80  0.8743
398.81  0.8748
398.82  0.8753
398.83  0.8759
398.84  0.8757
398.85  0.8755
398.86  0.8752
398.87  0.8751
398.88  0.8750
398.89  0.8753
398.90  0.8758
398.91  0.8764
398.92  0.8769
398.93  0.8775
398.94  0.8773
398.95  0.8771
398.96  0.8769
398.97  0.8767
398.98  0.8766
398.99  0.8768
399.00  0.8773
399.01  0.8779
399.02  0.8785
399.03  0.8791
399.04  0.8788
399.05  0.8786
399.06  0.8784
399.07  0.8782
399.08  0.8781
399.09  0.8782
399.10  0.8788
399.11  0.8793
399.12  0.8799
399.13  0.8805
399.14  0.8803
399.15  0.8801
399.16  0.8799
399.17  0.8797
399.18  0.8796
399.19  0.8797
399.20  0.8802
399.21  0.8807
399.22  0.8813
399.23  0.8819
399.24  0.8817
399.25  0.8815
399.26  0.8814
399.27  0.8812
399.28  0.8811
399.29  0.8812
399.30  0.8816
399.31  0.8821
399.32  0.8826
399.33  0.8832
399.34  0.8831
399.35  0.8830
399.36  0.8829
399.37  0.8828
399.38  0.8827
399.39  0.8828
399.40  0.8831
399.41  0.8835
399.42  0.8840
399.43  0.8846
399.44  0.8846
399.45  0.8845
399.46  0.8845
399.47  0.8845
399.48  0.8845
399.49  0.8845
399.50  0.8848
399.51  0.8851
399.52  0.8856
399.53  0.8861
399.54  0.8862
399.55  0.8862
399.56  0.8863
399.57  0.8859
399.58  0.8860
399.59  0.8859
399.60  0.8862
399.61  0.8864
399.62  0.8869
399.63  0.8873
399.64  0.8875
399.65  0.8877
399.66  0.8879
399.67  0.8881
399.68  0.8883
399.69  0.8882
399.70  0.8884
399.71  0.8885
399.72  0.8889
399.73  0.8893
399.74  0.8896
399.75  0.8905
399.76  0.8908
399.77  0.8911
399.78  0.8914
399.79  0.8913
399.80  0.8914
399.81  0.8914
399.82  0.8918
399.83  0.8922
399.84  0.8926
399.85  0.8930
399.86  0.8934
399.87  0.8938
399.88  0.8942
399.89  0.8941
399.90  0.8941
399.91  0.8941
399.92  0.8944
399.93  0.8948
399.94  0.8953
399.95  0.8957
399.96  0.8962
399.97  0.8967
399.98  0.8972
399.99  0.8970
400.00  0.8969
400.01  0.8969
400.02  0.8972
400.03  0.8975
400.04  0.8980
400.05  0.8985
400.06  0.8991
400.07  0.8996
400.08  0.9002
400.09  0.9000
400.10  0.8999
400.11  0.8998
400.12  0.9000
400.13  0.9003
400.14  0.9008
400.15  0.9014
400.16  0.9020
400.17  0.9026
400.18  0.9032
400.19  0.9029
400.20  0.9028
400.21  0.9026
400.22  0.9029
400.23  0.9031
400.24  0.9036
400.25  0.9042
400.26  0.9048
400.27  0.9054
400.28  0.9060
400.29  0.9058
400.30  0.9056
400.31  0.9055
400.32  0.9056
400.33  0.9058
400.34  0.9064
400.35  0.9069
400.36  0.9075
400.37  0.9081
400.38  0.9088
400.39  0.9085
400.40  0.9084
400.41  0.9082
400.42  0.9083
400.43  0.9085
400.44  0.9090
400.45  0.9095
400.46  0.9101
400.47  0.9107
400.48  0.9113
400.49  0.9111
400.50  0.9110
400.51  0.9109
400.52  0.9109
400.53  0.9110
400.54  0.9115
400.55  0.9119
400.56  0.9125
400.57  0.9131
400.58  0.9136
400.59  0.9135
400.60  0.9135
400.61  0.9134
400.62  0.9134
400.63  0.9134
400.64  0.9138
400.65  0.9142
400.66  0.9148
400.67  0.9153
400.68  0.9159
400.69  0.9158
400.70  0.9158
400.71  0.9158
400.72  0.9158
400.73  0.9158
400.74  0.9161
400.75  0.9164
400.76  0.9169
400.77  0.9174
400.78  0.9179
400.79  0.9180
400.80  0.9175
400.81  0.9177
400.82  0.9176
400.83  0.9176
400.84  0.9178
400.85  0.9181
400.86  0.9185
400.87  0.9190
400.88  0.9195
400.89  0.9197
400.90  0.9199
400.91  0.9201
400.92  0.9200
400.93  0.9199
400.94  0.9201
400.95  0.9202
400.96  0.9206
400.97  0.9211
400.98  0.9215
400.99  0.9218
401.00  0.9226
401.01  0.9230
401.02  0.9228
401.03  0.9227
401.04  0.9228
401.05  0.9229
401.06  0.9233
401.07  0.9237
401.08  0.9241
401.09  0.9245
401.10  0.9249
401.11  0.9253
401.12  0.9252
401.13  0.9250
401.14  0.9250
401.15  0.9250
401.16  0.9254
401.17  0.9258
401.18  0.9261
401.19  0.9266
401.20  0.9271
401.21  0.9276
401.22  0.9274
401.23  0.9272
401.24  0.9271
401.25  0.9271
401.26  0.9274
401.27  0.9277
401.28  0.9280
401.29  0.9286
401.30  0.9291
401.31  0.9297
401.32  0.9294
401.33  0.9292
401.34  0.9291
401.35  0.9290
401.36  0.9292
401.37  0.9295
401.38  0.9298
401.39  0.9303
401.40  0.9309
401.41  0.9315
401.42  0.9313
401.43  0.9310
401.44  0.9309
401.45  0.9307
401.46  0.9310
401.47  0.9312
401.48  0.9314
401.49  0.9320
401.50  0.9325
401.51  0.9332
401.52  0.9329
401.53  0.9327
401.54  0.9325
401.55  0.9323
401.56  0.9325
401.57  0.9327
401.58  0.9329
401.59  0.9334
401.60  0.9340
401.61  0.9346
401.62  0.9344
401.63  0.9342
401.64  0.9340
401.65  0.9338
401.66  0.9340
401.67  0.9341
401.68  0.9342
401.69  0.9347
401.70  0.9352
401.71  0.9359
401.72  0.9357
401.73  0.9355
401.74  0.9354
401.75  0.9352
401.76  0.9353
401.77  0.9354
401.78  0.9354
401.79  0.9359
401.80  0.9364
401.81  0.9370
401.82  0.9369
401.83  0.9367
401.84  0.9367
401.85  0.9366
401.86  0.9366
401.87  0.9366
401.88  0.9367
401.89  0.9370
401.90  0.9374
401.91  0.9380
401.92  0.9380
401.93  0.9379
401.94  0.9379
401.95  0.9379
401.96  0.9379
401.97  0.9379
401.98  0.9379
401.99  0.9382
402.00  0.9385
402.01  0.9390
402.02  0.9391
402.03  0.9392
402.04  0.9387
402.05  0.9388
402.06  0.9388
402.07  0.9387
402.08  0.9387
402.09  0.9389
402.10  0.9392
402.11  0.9397
402.12  0.9399
402.13  0.9401
402.14  0.9402
402.15  0.9404
402.16  0.9403
402.17  0.9402
402.18  0.9401
402.19  0.9403
402.20  0.9404
402.21  0.9409
402.22  0.9412
402.23  0.9415
402.24  0.9418
402.25  0.9426
402.26  0.9425
402.27  0.9424
402.28  0.9422
402.29  0.9423
402.30  0.9424
402.31  0.9428
402.32  0.9432
402.33  0.9436
402.34  0.9440
402.35  0.9445
402.36  0.9443
402.37  0.9441
402.38  0.9440
402.39  0.9440
402.40  0.9440
402.41  0.9443
402.42  0.9448
402.43  0.9453
402.44  0.9458
402.45  0.9463
402.46  0.9461
402.47  0.9459
402.48  0.9457
402.49  0.9456
402.50  0.9455
402.51  0.9459
402.52  0.9464
402.53  0.9469
402.54  0.9475
402.55  0.9480
402.56  0.9478
402.57  0.9476
402.58  0.9473
402.59  0.9472
402.60  0.9471
402.61  0.9474
402.62  0.9479
402.63  0.9485
402.64  0.9491
402.65  0.9497
402.66  0.9494
402.67  0.9492
402.68  0.9489
402.69  0.9487
402.70  0.9486
402.71  0.9488
402.72  0.9494
402.73  0.9500
402.74  0.9506
402.75  0.9511
402.76  0.9509
402.77  0.9506
402.78  0.9504
402.79  0.9502
402.80  0.9500
402.81  0.9502
402.82  0.9508
402.83  0.9513
402.84  0.9519
402.85  0.9525
402.86  0.9522
402.87  0.9520
402.88  0.9518
402.89  0.9516
402.90  0.9514
402.91  0.9515
402.92  0.9521
402.93  0.9526
402.94  0.9531
402.95  0.9536
402.96  0.9535
402.97  0.9533
402.98  0.9531
402.99  0.9529
403.00  0.9528
403.01  0.9529
403.02  0.9533
403.03  0.9538
403.04  0.9543
403.05  0.9547
403.06  0.9546
403.07  0.9545
403.08  0.9544
403.09  0.9543
403.10  0.9542
403.11  0.9542
403.12  0.9546
403.13  0.9550
403.14  0.9554
403.15  0.9558
403.16  0.9558
403.17  0.9558
403.18  0.9557
403.19  0.9557
403.20  0.9557
403.21  0.9557
403.22  0.9560
403.23  0.9563
403.24  0.9566
403.25  0.9569
403.26  0.9570
403.27  0.9571
403.28  0.9572
403.29  0.9567
403.30  0.9568
403.31  0.9567
403.32  0.9570
403.33  0.9572
403.34  0.9575
403.35  0.9577
403.36  0.9579
403.37  0.9581
403.38  0.9583
403.39  0.9585
403.40  0.9587
403.41  0.9586
403.42  0.9588
403.43  0.9589
403.44  0.9591
403.45  0.9592
403.46  0.9595
403.47  0.9598
403.48  0.9607
403.49  0.9610
403.50  0.9614
403.51  0.9612
403.52  0.9613
403.53  0.9614
403.54  0.9615
403.55  0.9616
403.56  0.9620
403.57  0.9624
403.58  0.9628
403.59  0.9632
403.60  0.9637
403.61  0.9635
403.62  0.9635
403.63  0.9635
403.64  0.9635
403.65  0.9635
403.66  0.9640
403.67  0.9645
403.68  0.9650
403.69  0.9655
403.70  0.9660
403.71  0.9658
403.72  0.9657
403.73  0.9657
403.74  0.9656
403.75  0.9655
403.76  0.9661
403.77  0.9666
403.78  0.9672
403.79  0.9678
403.80  0.9684
403.81  0.9681
403.82  0.9680
403.83  0.9679
403.84  0.9677
403.85  0.9676
403.86  0.9682
403.87  0.9688
403.88  0.9694
403.89  0.9700
403.90  0.9706
403.91  0.9704
403.92  0.9702
403.93  0.9700
403.94  0.9699
403.95  0.9697
403.96  0.9703
403.97  0.9709
403.98  0.9715
403.99  0.9721
404.00  0.9728
404.01  0.9725
404.02  0.9724
404.03  0.9722
404.04  0.9720
404.05  0.9718
404.06  0.9724
404.07  0.9729
404.08  0.9735
404.09  0.9742
404.10  0.9748
404.11  0.9746
404.12  0.9744
404.13  0.9742
404.14  0.9740
404.15  0.9739
404.16  0.9744
404.17  0.9749
404.18  0.9755
404.19  0.9761
404.20  0.9768
404.21  0.9766
404.22  0.9764
404.23  0.9763
404.24  0.9761
404.25  0.9760
404.26  0.9764
404.27  0.9769
404.28  0.9774
404.29  0.9780
404.30  0.9786
404.31  0.9785
404.32  0.9784
404.33  0.9783
404.34  0.9782
404.35  0.9781
404.36  0.9785
404.37  0.9789
404.38  0.9793
404.39  0.9799
404.40  0.9805
404.41  0.9805
404.42  0.9805
404.43  0.9804
404.44  0.9804
404.45  0.9804
404.46  0.9807
404.47  0.9811
404.48  0.9814
404.49  0.9819
404.50  0.9825
404.51  0.9825
404.52  0.9820
404.53  0.9821
404.54  0.9822
404.55  0.9824
404.56  0.9826
404.57  0.9829
404.58  0.9831
404.59  0.9836
404.60  0.9842
404.61  0.9844
404.62  0.9846
404.63  0.9848
404.64  0.9850
404.65  0.9852
404.66  0.9853
404.67  0.9855
404.68  0.9856
404.69  0.9861
404.70  0.9866
404.71  0.9869
404.72  0.9872
404.73  0.9875
404.74  0.9878
404.75  0.9881
404.76  0.9881
404.77  0.9882
404.78  0.9882
404.79  0.9886
404.80  0.9890
404.81  0.9894
404.82  0.9898
404.83  0.9902
404.84  0.9906
404.85  0.9910
404.86  0.9909
404.87  0.9908
404.88  0.9908
404.89  0.9911
404.90  0.9915
404.91  0.9919
404.92  0.9924
404.93  0.9928
404.94  0.9933
404.95  0.9937
404.96  0.9936
404.97  0.9934
404.98  0.9933
404.99  0.9935
405.00  0.9938
405.01  0.9943
405.02  0.9948
405.03  0.9953
405.04  0.9958
405.05  0.9962
405.06  0.9960
405.07  0.9957
405.08  0.9955
405.09  0.9957
405.10  0.9958
405.11  0.9963
405.12  0.9968
405.13  0.9973
405.14  0.9978
405.15  0.9983
405.16  0.9979
405.17  0.9976
405.18  0.9972
405.19  0.9973
405.20  0.9974
405.21  0.9978
405.22  0.9983
405.23  0.9987
405.24  0.9992
405.25  0.9996
405.26  0.9992
405.27  0.9987
405.28  0.9983
405.29  0.9983
405.30  0.9982
405.31  0.9986
405.32  0.9989
405.33  0.9993
405.34  0.9996
405.35  1.0000
405.36  0.9995
405.37  0.9990
405.38  0.9985
405.39  0.9983
405.40  0.9981
405.41  0.9983
405.42  0.9985
405.43  0.9987
405.44  0.9990
405.45  0.9992
405.46  0.9986
405.47  0.9980
405.48  0.9974
405.49  0.9970
405.50  0.9967
405.51  0.9967
405.52  0.9967
405.53  0.9968
405.54  0.9968
405.55  0.9969
405.56  0.9962
405.57  0.9955
405.58  0.9948
405.59  0.9942
405.60  0.9937
405.61  0.9935
405.62  0.9933
405.63  0.9931
405.64  0.9930
405.65  0.9928
405.66  0.9920
405.67  0.9912
405.68  0.9904
405.69  0.9896
405.70  0.9888
405.71  0.9883
405.72  0.9879
405.73  0.9874
405.74  0.9869
405.75  0.9865
405.76  0.9850
405.77  0.9841
405.78  0.9832
405.79  0.9821
405.80  0.9810
405.81  0.9803
405.82  0.9795
405.83  0.9788
405.84  0.9780
405.85  0.9772
405.86  0.9762
405.87  0.9751
405.88  0.9740
405.89  0.9726
405.90  0.9712
405.91  0.9701
405.92  0.9689
405.93  0.9678
405.94  0.9666
405.95  0.9655
405.96  0.9642
405.97  0.9629
405.98  0.9616
405.99  0.9598
406.00  0.9580
406.01  0.9564
406.02  0.9549
406.03  0.9533
406.04  0.9518
406.05  0.9502
406.06  0.9486
406.07  0.9470
406.08  0.9455
406.09  0.9432
406.10  0.9410
406.11  0.9390
406.12  0.9369
406.13  0.9349
406.14  0.9329
406.15  0.9308
406.16  0.9289
406.17  0.9270
406.18  0.9251
406.19  0.9224
406.20  0.9197
406.21  0.9172
406.22  0.9146
406.23  0.9121
406.24  0.9095
406.25  0.9070
406.26  0.9047
406.27  0.9024
406.28  0.9001
406.29  0.8969
406.30  0.8937
406.31  0.8906
406.32  0.8875
406.33  0.8845
406.34  0.8814
406.35  0.8783
406.36  0.8756
406.37  0.8728
406.38  0.8701
406.39  0.8664
406.40  0.8627
406.41  0.8591
406.42  0.8554
406.43  0.8518
406.44  0.8482
406.45  0.8446
406.46  0.8414
406.47  0.8381
406.48  0.8349
406.49  0.8307
406.50  0.8265
406.51  0.8224
406.52  0.8182
406.53  0.8141
406.54  0.8100
406.55  0.8058
406.56  0.8021
406.57  0.7984
406.58  0.7946
406.59  0.7900
406.60  0.7853
406.61  0.7807
406.62  0.7760
406.63  0.7714
406.64  0.7668
406.65  0.7621
406.66  0.7579
406.67  0.7537
406.68  0.7495
406.69  0.7444
406.70  0.7393
406.71  0.7343
406.72  0.7292
406.73  0.7242
406.74  0.7191
406.75  0.7140
406.76  0.7094
406.77  0.7047
406.78  0.7001
406.79  0.6947
406.80  0.6892
406.81  0.6838
406.82  0.6784
406.83  0.6730
406.84  0.6676
406.85  0.6621
406.86  0.6571
406.87  0.6521
406.88  0.6471
406.89  0.6414
406.90  0.6357
406.91  0.6300
406.92  0.6244
406.93  0.6187
406.94  0.6130
406.95  0.6074
406.96  0.6021
406.97  0.5967
406.98  0.5914
406.99  0.5856
407.00  0.5798
407.01  0.5734
407.02  0.5676
407.03  0.5618
407.04  0.5560
407.05  0.5502
407.06  0.5447
407.07  0.5393
407.08  0.5338
407.09  0.5280
407.10  0.5222
407.11  0.5164
407.12  0.5105
407.13  0.5047
407.14  0.4989
407.15  0.4931
407.16  0.4875
407.17  0.4820
407.18  0.4764
407.19  0.4707
407.20  0.4650
407.21  0.4592
407.22  0.4535
407.23  0.4478
407.24  0.4420
407.25  0.4363
407.26  0.4308
407.27  0.4253
407.28  0.4198
407.29  0.4143
407.30  0.4087
407.31  0.4032
407.32  0.3977
407.33  0.3921
407.34  0.3866
407.35  0.3811
407.36  0.3757
407.37  0.3704
407.38  0.3650
407.39  0.3598
407.40  0.3546
407.41  0.3494
407.42  0.3441
407.43  0.3389
407.44  0.3337
407.45  0.3284
407.46  0.3233
407.47  0.3182
407.48  0.3132
407.49  0.3083
407.50  0.3035
407.51  0.2986
407.52  0.2938
407.53  0.2889
407.54  0.2840
407.55  0.2792
407.56  0.2744
407.57  0.2697
407.58  0.2650
407.59  0.2606
407.60  0.2561
407.61  0.2517
407.62  0.2473
407.63  0.2429
407.64  0.2385
407.65  0.2340
407.66  0.2297
407.67  0.2254
407.68  0.2211
407.69  0.2171
407.70  0.2132
407.71  0.2092
407.72  0.2053
407.73  0.2013
407.74  0.1974
407.75  0.1935
407.76  0.1896
407.77  0.1857
407.78  0.1818
407.79  0.1784
407.80  0.1749
407.81  0.1715
407.82  0.1680
407.83  0.1645
407.84  0.1611
407.85  0.1576
407.86  0.1542
407.87  0.1508
407.88  0.1474
407.89  0.1444
407.90  0.1414
407.91  0.1385
407.92  0.1355
407.93  0.1325
407.94  0.1296
407.95  0.1266
407.96  0.1236
407.97  0.1207
407.98  0.1178
407.99  0.1152
408.00  0.1127
408.01  0.1102
408.02  0.1077
408.03  0.1052
408.04  0.1027
408.05  0.1002
408.06  0.0977
408.07  0.0952
408.08  0.0927
408.09  0.0906
408.10  0.0885
408.11  0.0865
408.12  0.0844
408.13  0.0823
408.14  0.0802
408.15  0.0781
408.16  0.0760
408.17  0.0740
408.18  0.0719
408.19  0.0702
408.20  0.0685
408.21  0.0668
408.22  0.0651
408.23  0.0634
408.24  0.0617
408.25  0.0600
408.26  0.0577
408.27  0.0560
408.28  0.0544
408.29  0.0530
408.30  0.0517
408.31  0.0504
408.32  0.0490
408.33  0.0477
408.34  0.0464
408.35  0.0450
408.36  0.0437
408.37  0.0423
408.38  0.0410
408.39  0.0399
408.40  0.0389
408.41  0.0378
408.42  0.0368
408.43  0.0357
408.44  0.0347
408.45  0.0336
408.46  0.0326
408.47  0.0315
408.48  0.0304
408.49  0.0296
408.50  0.0288
408.51  0.0280
408.52  0.0272
408.53  0.0264
408.54  0.0255
408.55  0.0247
408.56  0.0239
408.57  0.0231
408.58  0.0223
408.59  0.0216
408.60  0.0210
408.61  0.0204
408.62  0.0198
408.63  0.0192
408.64  0.0185
408.65  0.0179
408.66  0.0173
408.67  0.0167
408.68  0.0160
408.69  0.0156
408.70  0.0151
408.71  0.0146
408.72  0.0142
408.73  0.0137
408.74  0.0132
408.75  0.0128
408.76  0.0123
408.77  0.0118
408.78  0.0114
408.79  0.0110
408.80  0.0107
408.81  0.0103
408.82  0.0100
408.83  0.0097
408.84  0.0093
408.85  0.0090
408.86  0.0086
408.87  0.0083
408.88  0.0079
408.89  0.0077
408.90  0.0074
408.91  0.0072
408.92  0.0070
408.93  0.0067
408.94  0.0065
408.95  0.0062
408.96  0.0060
408.97  0.0057
408.98  0.0055
408.99  0.0053
409.00  0.0051
409.01  0.0049
409.02  0.0048
409.03  0.0046
409.04  0.0044
409.05  0.0042
409.06  0.0041
409.07  0.0039
409.08  0.0037
409.09  0.0036
409.10  0.0035
409.11  0.0033
409.12  0.0032
409.13  0.0031
409.14  0.0030
409.15  0.0028
409.16  0.0027
409.17  0.0026
409.18  0.0025
409.19  0.0024
409.20  0.0023
409.21  0.0022
409.22  0.0021
409.23  0.0020
409.24  0.0020
409.25  0.0019
409.26  0.0018
409.27  0.0017
409.28  0.0016
409.29  0.0016
409.30  0.0015
409.31  0.0014
409.32  0.0014
409.33  0.0013
409.34  0.0013
409.35  0.0012
409.36  0.0012
409.37  0.0011
409.38  0.0010
409.39  0.0010
409.40  0.0010
409.41  0.0009
409.42  0.0009
409.43  0.0009
409.44  0.0008
409.45  0.0008
409.46  0.0007
409.47  0.0007
409.48  0.0007
