# Provided by ESA in 10/2012
# Important Notes:
# The data contained here correspond to the OLCI Spectral Model CDR derived in 2011.
# The data have been calculated for the camera 4, pointing nadir.
675.11  0.0006
675.12  0.0007
675.13  0.0007
675.14  0.0007
675.15  0.0008
675.16  0.0008
675.17  0.0008
675.18  0.0009
675.19  0.0009
675.20  0.0009
675.21  0.0010
675.22  0.0010
675.23  0.0011
675.24  0.0011
675.25  0.0012
675.26  0.0012
675.27  0.0013
675.28  0.0013
675.29  0.0014
675.30  0.0015
675.31  0.0015
675.32  0.0016
675.33  0.0017
675.34  0.0017
675.35  0.0018
675.36  0.0019
675.37  0.0020
675.38  0.0021
675.39  0.0021
675.40  0.0022
675.41  0.0023
675.42  0.0024
675.43  0.0025
675.44  0.0026
675.45  0.0028
675.46  0.0029
675.47  0.0030
675.48  0.0031
675.49  0.0032
675.50  0.0033
675.51  0.0035
675.52  0.0036
675.53  0.0038
675.54  0.0040
675.55  0.0041
675.56  0.0043
675.57  0.0045
675.58  0.0046
675.59  0.0048
675.60  0.0049
675.61  0.0051
675.62  0.0053
675.63  0.0056
675.64  0.0058
675.65  0.0060
675.66  0.0063
675.67  0.0065
675.68  0.0068
675.69  0.0070
675.70  0.0072
675.71  0.0075
675.72  0.0078
675.73  0.0081
675.74  0.0084
675.75  0.0087
675.76  0.0091
675.77  0.0094
675.78  0.0097
675.79  0.0100
675.80  0.0104
675.81  0.0107
675.82  0.0111
675.83  0.0116
675.84  0.0120
675.85  0.0125
675.86  0.0129
675.87  0.0133
675.88  0.0138
675.89  0.0142
675.90  0.0147
675.91  0.0151
675.92  0.0157
675.93  0.0163
675.94  0.0169
675.95  0.0175
675.96  0.0180
675.97  0.0186
675.98  0.0192
675.99  0.0198
676.00  0.0204
676.01  0.0210
676.02  0.0218
676.03  0.0226
676.04  0.0233
676.05  0.0241
676.06  0.0249
676.07  0.0257
676.08  0.0264
676.09  0.0272
676.10  0.0280
676.11  0.0288
676.12  0.0298
676.13  0.0308
676.14  0.0318
676.15  0.0328
676.16  0.0338
676.17  0.0348
676.18  0.0358
676.19  0.0368
676.20  0.0378
676.21  0.0388
676.22  0.0401
676.23  0.0413
676.24  0.0426
676.25  0.0439
676.26  0.0452
676.27  0.0464
676.28  0.0477
676.29  0.0490
676.30  0.0503
676.31  0.0515
676.32  0.0531
676.33  0.0547
676.34  0.0563
676.35  0.0579
676.36  0.0601
676.37  0.0617
676.38  0.0633
676.39  0.0650
676.40  0.0666
676.41  0.0682
676.42  0.0702
676.43  0.0722
676.44  0.0741
676.45  0.0761
676.46  0.0781
676.47  0.0801
676.48  0.0821
676.49  0.0841
676.50  0.0861
676.51  0.0881
676.52  0.0905
676.53  0.0929
676.54  0.0952
676.55  0.0976
676.56  0.1000
676.57  0.1024
676.58  0.1048
676.59  0.1072
676.60  0.1097
676.61  0.1121
676.62  0.1149
676.63  0.1177
676.64  0.1205
676.65  0.1234
676.66  0.1262
676.67  0.1290
676.68  0.1319
676.69  0.1348
676.70  0.1376
676.71  0.1405
676.72  0.1438
676.73  0.1471
676.74  0.1503
676.75  0.1536
676.76  0.1569
676.77  0.1602
676.78  0.1636
676.79  0.1669
676.80  0.1702
676.81  0.1736
676.82  0.1773
676.83  0.1811
676.84  0.1848
676.85  0.1885
676.86  0.1923
676.87  0.1961
676.88  0.1999
676.89  0.2037
676.90  0.2075
676.91  0.2113
676.92  0.2155
676.93  0.2197
676.94  0.2239
676.95  0.2281
676.96  0.2323
676.97  0.2366
676.98  0.2408
676.99  0.2451
677.00  0.2494
677.01  0.2537
677.02  0.2583
677.03  0.2629
677.04  0.2675
677.05  0.2721
677.06  0.2767
677.07  0.2814
677.08  0.2861
677.09  0.2908
677.10  0.2955
677.11  0.3002
677.12  0.3052
677.13  0.3101
677.14  0.3151
677.15  0.3200
677.16  0.3250
677.17  0.3301
677.18  0.3352
677.19  0.3403
677.20  0.3454
677.21  0.3505
677.22  0.3557
677.23  0.3609
677.24  0.3661
677.25  0.3713
677.26  0.3765
677.27  0.3819
677.28  0.3873
677.29  0.3927
677.30  0.3981
677.31  0.4035
677.32  0.4089
677.33  0.4143
677.34  0.4197
677.35  0.4251
677.36  0.4305
677.37  0.4361
677.38  0.4417
677.39  0.4473
677.40  0.4529
677.41  0.4586
677.42  0.4640
677.43  0.4695
677.44  0.4749
677.45  0.4804
677.46  0.4858
677.47  0.4915
677.48  0.4972
677.49  0.5030
677.50  0.5087
677.51  0.5144
677.52  0.5198
677.53  0.5252
677.54  0.5306
677.55  0.5360
677.56  0.5414
677.57  0.5471
677.58  0.5528
677.59  0.5585
677.60  0.5642
677.61  0.5705
677.62  0.5758
677.63  0.5811
677.64  0.5863
677.65  0.5916
677.66  0.5968
677.67  0.6024
677.68  0.6081
677.69  0.6137
677.70  0.6193
677.71  0.6249
677.72  0.6299
677.73  0.6349
677.74  0.6399
677.75  0.6449
677.76  0.6499
677.77  0.6553
677.78  0.6607
677.79  0.6660
677.80  0.6714
677.81  0.6768
677.82  0.6815
677.83  0.6861
677.84  0.6908
677.85  0.6954
677.86  0.7000
677.87  0.7051
677.88  0.7102
677.89  0.7152
677.90  0.7203
677.91  0.7253
677.92  0.7296
677.93  0.7338
677.94  0.7380
677.95  0.7423
677.96  0.7465
677.97  0.7512
677.98  0.7558
677.99  0.7605
678.00  0.7651
678.01  0.7698
678.02  0.7736
678.03  0.7773
678.04  0.7811
678.05  0.7849
678.06  0.7887
678.07  0.7929
678.08  0.7971
678.09  0.8012
678.10  0.8054
678.11  0.8096
678.12  0.8129
678.13  0.8162
678.14  0.8196
678.15  0.8229
678.16  0.8262
678.17  0.8299
678.18  0.8336
678.19  0.8372
678.20  0.8409
678.21  0.8446
678.22  0.8475
678.23  0.8503
678.24  0.8532
678.25  0.8560
678.26  0.8589
678.27  0.8621
678.28  0.8652
678.29  0.8684
678.30  0.8716
678.31  0.8747
678.32  0.8772
678.33  0.8796
678.34  0.8820
678.35  0.8845
678.36  0.8869
678.37  0.8895
678.38  0.8922
678.39  0.8949
678.40  0.8975
678.41  0.9002
678.42  0.9022
678.43  0.9043
678.44  0.9063
678.45  0.9084
678.46  0.9104
678.47  0.9126
678.48  0.9148
678.49  0.9169
678.50  0.9191
678.51  0.9213
678.52  0.9230
678.53  0.9247
678.54  0.9265
678.55  0.9282
678.56  0.9299
678.57  0.9316
678.58  0.9333
678.59  0.9350
678.60  0.9368
678.61  0.9385
678.62  0.9399
678.63  0.9414
678.64  0.9428
678.65  0.9443
678.66  0.9457
678.67  0.9470
678.68  0.9483
678.69  0.9496
678.70  0.9509
678.71  0.9522
678.72  0.9535
678.73  0.9547
678.74  0.9560
678.75  0.9572
678.76  0.9584
678.77  0.9594
678.78  0.9603
678.79  0.9612
678.80  0.9621
678.81  0.9630
678.82  0.9641
678.83  0.9652
678.84  0.9663
678.85  0.9673
678.86  0.9690
678.87  0.9696
678.88  0.9703
678.89  0.9709
678.90  0.9715
678.91  0.9721
678.92  0.9731
678.93  0.9741
678.94  0.9750
678.95  0.9760
678.96  0.9770
678.97  0.9773
678.98  0.9777
678.99  0.9780
679.00  0.9784
679.01  0.9788
679.02  0.9796
679.03  0.9805
679.04  0.9814
679.05  0.9822
679.06  0.9831
679.07  0.9832
679.08  0.9833
679.09  0.9835
679.10  0.9836
679.11  0.9837
679.12  0.9845
679.13  0.9853
679.14  0.9861
679.15  0.9868
679.16  0.9876
679.17  0.9876
679.18  0.9875
679.19  0.9875
679.20  0.9874
679.21  0.9874
679.22  0.9881
679.23  0.9888
679.24  0.9895
679.25  0.9902
679.26  0.9909
679.27  0.9907
679.28  0.9905
679.29  0.9903
679.30  0.9901
679.31  0.9900
679.32  0.9906
679.33  0.9912
679.34  0.9918
679.35  0.9924
679.36  0.9930
679.37  0.9927
679.38  0.9925
679.39  0.9922
679.40  0.9919
679.41  0.9917
679.42  0.9922
679.43  0.9927
679.44  0.9932
679.45  0.9938
679.46  0.9943
679.47  0.9940
679.48  0.9937
679.49  0.9934
679.50  0.9930
679.51  0.9927
679.52  0.9932
679.53  0.9936
679.54  0.9940
679.55  0.9945
679.56  0.9949
679.57  0.9946
679.58  0.9943
679.59  0.9939
679.60  0.9936
679.61  0.9933
679.62  0.9937
679.63  0.9940
679.64  0.9943
679.65  0.9946
679.66  0.9950
679.67  0.9947
679.68  0.9944
679.69  0.9941
679.70  0.9939
679.71  0.9936
679.72  0.9938
679.73  0.9940
679.74  0.9943
679.75  0.9945
679.76  0.9947
679.77  0.9945
679.78  0.9943
679.79  0.9941
679.80  0.9939
679.81  0.9937
679.82  0.9938
679.83  0.9939
679.84  0.9941
679.85  0.9942
679.86  0.9943
679.87  0.9942
679.88  0.9941
679.89  0.9939
679.90  0.9938
679.91  0.9937
679.92  0.9937
679.93  0.9937
679.94  0.9938
679.95  0.9938
679.96  0.9938
679.97  0.9938
679.98  0.9938
679.99  0.9937
680.00  0.9937
680.01  0.9937
680.02  0.9936
680.03  0.9935
680.04  0.9934
680.05  0.9934
680.06  0.9933
680.07  0.9934
680.08  0.9934
680.09  0.9935
680.10  0.9936
680.11  0.9943
680.12  0.9941
680.13  0.9940
680.14  0.9938
680.15  0.9937
680.16  0.9935
680.17  0.9937
680.18  0.9939
680.19  0.9941
680.20  0.9943
680.21  0.9945
680.22  0.9943
680.23  0.9940
680.24  0.9938
680.25  0.9936
680.26  0.9933
680.27  0.9936
680.28  0.9939
680.29  0.9942
680.30  0.9944
680.31  0.9947
680.32  0.9944
680.33  0.9941
680.34  0.9938
680.35  0.9935
680.36  0.9932
680.37  0.9935
680.38  0.9938
680.39  0.9942
680.40  0.9945
680.41  0.9949
680.42  0.9945
680.43  0.9941
680.44  0.9938
680.45  0.9934
680.46  0.9930
680.47  0.9934
680.48  0.9938
680.49  0.9941
680.50  0.9945
680.51  0.9949
680.52  0.9945
680.53  0.9940
680.54  0.9936
680.55  0.9932
680.56  0.9928
680.57  0.9932
680.58  0.9936
680.59  0.9939
680.60  0.9943
680.61  0.9947
680.62  0.9943
680.63  0.9938
680.64  0.9934
680.65  0.9930
680.66  0.9925
680.67  0.9929
680.68  0.9932
680.69  0.9936
680.70  0.9940
680.71  0.9943
680.72  0.9939
680.73  0.9935
680.74  0.9930
680.75  0.9926
680.76  0.9922
680.77  0.9925
680.78  0.9928
680.79  0.9931
680.80  0.9934
680.81  0.9937
680.82  0.9934
680.83  0.9930
680.84  0.9926
680.85  0.9922
680.86  0.9918
680.87  0.9920
680.88  0.9923
680.89  0.9925
680.90  0.9928
680.91  0.9930
680.92  0.9927
680.93  0.9924
680.94  0.9920
680.95  0.9917
680.96  0.9914
680.97  0.9916
680.98  0.9917
680.99  0.9919
681.00  0.9921
681.01  0.9923
681.02  0.9922
681.03  0.9920
681.04  0.9918
681.05  0.9917
681.06  0.9915
681.07  0.9916
681.08  0.9918
681.09  0.9920
681.10  0.9921
681.11  0.9923
681.12  0.9917
681.13  0.9916
681.14  0.9916
681.15  0.9915
681.16  0.9914
681.17  0.9915
681.18  0.9916
681.19  0.9917
681.20  0.9918
681.21  0.9919
681.22  0.9920
681.23  0.9920
681.24  0.9921
681.25  0.9921
681.26  0.9922
681.27  0.9922
681.28  0.9922
681.29  0.9922
681.30  0.9922
681.31  0.9922
681.32  0.9923
681.33  0.9925
681.34  0.9926
681.35  0.9927
681.36  0.9935
681.37  0.9934
681.38  0.9934
681.39  0.9933
681.40  0.9932
681.41  0.9931
681.42  0.9934
681.43  0.9937
681.44  0.9939
681.45  0.9942
681.46  0.9945
681.47  0.9943
681.48  0.9942
681.49  0.9940
681.50  0.9939
681.51  0.9937
681.52  0.9940
681.53  0.9944
681.54  0.9947
681.55  0.9951
681.56  0.9955
681.57  0.9952
681.58  0.9950
681.59  0.9948
681.60  0.9945
681.61  0.9943
681.62  0.9947
681.63  0.9951
681.64  0.9955
681.65  0.9959
681.66  0.9963
681.67  0.9961
681.68  0.9958
681.69  0.9955
681.70  0.9952
681.71  0.9949
681.72  0.9953
681.73  0.9958
681.74  0.9962
681.75  0.9967
681.76  0.9971
681.77  0.9968
681.78  0.9964
681.79  0.9961
681.80  0.9958
681.81  0.9954
681.82  0.9959
681.83  0.9963
681.84  0.9968
681.85  0.9972
681.86  0.9977
681.87  0.9973
681.88  0.9970
681.89  0.9966
681.90  0.9963
681.91  0.9959
681.92  0.9963
681.93  0.9968
681.94  0.9972
681.95  0.9976
681.96  0.9981
681.97  0.9977
681.98  0.9974
681.99  0.9970
682.00  0.9967
682.01  0.9963
682.02  0.9967
682.03  0.9971
682.04  0.9975
682.05  0.9979
682.06  0.9983
682.07  0.9979
682.08  0.9976
682.09  0.9973
682.10  0.9970
682.11  0.9967
682.12  0.9970
682.13  0.9973
682.14  0.9976
682.15  0.9980
682.16  0.9983
682.17  0.9980
682.18  0.9978
682.19  0.9975
682.20  0.9973
682.21  0.9970
682.22  0.9973
682.23  0.9975
682.24  0.9978
682.25  0.9980
682.26  0.9983
682.27  0.9981
682.28  0.9979
682.29  0.9978
682.30  0.9976
682.31  0.9974
682.32  0.9976
682.33  0.9977
682.34  0.9979
682.35  0.9981
682.36  0.9982
682.37  0.9976
682.38  0.9975
682.39  0.9975
682.40  0.9974
682.41  0.9974
682.42  0.9975
682.43  0.9976
682.44  0.9977
682.45  0.9978
682.46  0.9979
682.47  0.9979
682.48  0.9980
682.49  0.9980
682.50  0.9981
682.51  0.9981
682.52  0.9981
682.53  0.9981
682.54  0.9981
682.55  0.9981
682.56  0.9981
682.57  0.9982
682.58  0.9984
682.59  0.9985
682.60  0.9987
682.61  0.9988
682.62  0.9987
682.63  0.9986
682.64  0.9985
682.65  0.9984
682.66  0.9983
682.67  0.9985
682.68  0.9987
682.69  0.9990
682.70  0.9992
682.71  0.9994
682.72  0.9992
682.73  0.9990
682.74  0.9988
682.75  0.9986
682.76  0.9984
682.77  0.9987
682.78  0.9990
682.79  0.9993
682.80  0.9996
682.81  0.9999
682.82  0.9996
682.83  0.9993
682.84  0.9990
682.85  0.9986
682.86  0.9983
682.87  0.9987
682.88  0.9990
682.89  0.9993
682.90  0.9997
682.91  1.0000
682.92  0.9996
682.93  0.9992
682.94  0.9988
682.95  0.9984
682.96  0.9979
682.97  0.9983
682.98  0.9986
682.99  0.9989
683.00  0.9993
683.01  0.9996
683.02  0.9991
683.03  0.9986
683.04  0.9981
683.05  0.9976
683.06  0.9971
683.07  0.9974
683.08  0.9977
683.09  0.9980
683.10  0.9982
683.11  0.9985
683.12  0.9979
683.13  0.9974
683.14  0.9968
683.15  0.9962
683.16  0.9956
683.17  0.9958
683.18  0.9960
683.19  0.9962
683.20  0.9964
683.21  0.9966
683.22  0.9959
683.23  0.9952
683.24  0.9945
683.25  0.9939
683.26  0.9932
683.27  0.9933
683.28  0.9933
683.29  0.9934
683.30  0.9935
683.31  0.9935
683.32  0.9928
683.33  0.9920
683.34  0.9912
683.35  0.9905
683.36  0.9897
683.37  0.9896
683.38  0.9895
683.39  0.9894
683.40  0.9893
683.41  0.9892
683.42  0.9883
683.43  0.9875
683.44  0.9866
683.45  0.9858
683.46  0.9849
683.47  0.9846
683.48  0.9842
683.49  0.9839
683.50  0.9836
683.51  0.9832
683.52  0.9823
683.53  0.9813
683.54  0.9804
683.55  0.9794
683.56  0.9785
683.57  0.9779
683.58  0.9773
683.59  0.9766
683.60  0.9760
683.61  0.9754
683.62  0.9737
683.63  0.9727
683.64  0.9716
683.65  0.9706
683.66  0.9695
683.67  0.9686
683.68  0.9677
683.69  0.9668
683.70  0.9659
683.71  0.9650
683.72  0.9638
683.73  0.9625
683.74  0.9613
683.75  0.9601
683.76  0.9588
683.77  0.9575
683.78  0.9563
683.79  0.9550
683.80  0.9537
683.81  0.9524
683.82  0.9510
683.83  0.9495
683.84  0.9481
683.85  0.9466
683.86  0.9452
683.87  0.9435
683.88  0.9418
683.89  0.9401
683.90  0.9384
683.91  0.9367
683.92  0.9349
683.93  0.9332
683.94  0.9315
683.95  0.9298
683.96  0.9281
683.97  0.9259
683.98  0.9237
683.99  0.9216
684.00  0.9194
684.01  0.9172
684.02  0.9152
684.03  0.9131
684.04  0.9111
684.05  0.9091
684.06  0.9070
684.07  0.9044
684.08  0.9017
684.09  0.8990
684.10  0.8964
684.11  0.8937
684.12  0.8913
684.13  0.8889
684.14  0.8864
684.15  0.8840
684.16  0.8816
684.17  0.8784
684.18  0.8752
684.19  0.8720
684.20  0.8689
684.21  0.8657
684.22  0.8628
684.23  0.8600
684.24  0.8571
684.25  0.8543
684.26  0.8514
684.27  0.8477
684.28  0.8440
684.29  0.8403
684.30  0.8366
684.31  0.8329
684.32  0.8296
684.33  0.8263
684.34  0.8229
684.35  0.8196
684.36  0.8163
684.37  0.8121
684.38  0.8079
684.39  0.8037
684.40  0.7995
684.41  0.7953
684.42  0.7915
684.43  0.7877
684.44  0.7839
684.45  0.7801
684.46  0.7763
684.47  0.7716
684.48  0.7669
684.49  0.7623
684.50  0.7576
684.51  0.7529
684.52  0.7487
684.53  0.7444
684.54  0.7402
684.55  0.7359
684.56  0.7316
684.57  0.7266
684.58  0.7215
684.59  0.7164
684.60  0.7113
684.61  0.7062
684.62  0.7015
684.63  0.6969
684.64  0.6922
684.65  0.6875
684.66  0.6828
684.67  0.6774
684.68  0.6720
684.69  0.6666
684.70  0.6612
684.71  0.6557
684.72  0.6507
684.73  0.6457
684.74  0.6407
684.75  0.6356
684.76  0.6306
684.77  0.6250
684.78  0.6193
684.79  0.6137
684.80  0.6080
684.81  0.6024
684.82  0.5971
684.83  0.5918
684.84  0.5865
684.85  0.5812
684.86  0.5759
684.87  0.5695
684.88  0.5638
684.89  0.5580
684.90  0.5523
684.91  0.5465
684.92  0.5411
684.93  0.5356
684.94  0.5302
684.95  0.5248
684.96  0.5193
684.97  0.5136
684.98  0.5078
684.99  0.5020
685.00  0.4963
685.01  0.4905
685.02  0.4850
685.03  0.4795
685.04  0.4740
685.05  0.4685
685.06  0.4631
685.07  0.4574
685.08  0.4517
685.09  0.4461
685.10  0.4404
685.11  0.4348
685.12  0.4293
685.13  0.4239
685.14  0.4185
685.15  0.4130
685.16  0.4076
685.17  0.4021
685.18  0.3967
685.19  0.3912
685.20  0.3858
685.21  0.3804
685.22  0.3751
685.23  0.3698
685.24  0.3646
685.25  0.3593
685.26  0.3540
685.27  0.3489
685.28  0.3438
685.29  0.3386
685.30  0.3335
685.31  0.3283
685.32  0.3234
685.33  0.3184
685.34  0.3134
685.35  0.3084
685.36  0.3034
685.37  0.2986
685.38  0.2939
685.39  0.2891
685.40  0.2844
685.41  0.2796
685.42  0.2750
685.43  0.2703
685.44  0.2657
685.45  0.2610
685.46  0.2564
685.47  0.2521
685.48  0.2478
685.49  0.2434
685.50  0.2391
685.51  0.2348
685.52  0.2306
685.53  0.2263
685.54  0.2221
685.55  0.2179
685.56  0.2137
685.57  0.2098
685.58  0.2060
685.59  0.2021
685.60  0.1983
685.61  0.1944
685.62  0.1906
685.63  0.1868
685.64  0.1831
685.65  0.1793
685.66  0.1755
685.67  0.1721
685.68  0.1688
685.69  0.1654
685.70  0.1620
685.71  0.1587
685.72  0.1554
685.73  0.1520
685.74  0.1487
685.75  0.1454
685.76  0.1421
685.77  0.1392
685.78  0.1363
685.79  0.1334
685.80  0.1305
685.81  0.1276
685.82  0.1248
685.83  0.1219
685.84  0.1191
685.85  0.1162
685.86  0.1134
685.87  0.1109
685.88  0.1085
685.89  0.1061
685.90  0.1036
685.91  0.1012
685.92  0.0988
685.93  0.0964
685.94  0.0940
685.95  0.0915
685.96  0.0891
685.97  0.0871
685.98  0.0851
685.99  0.0831
686.00  0.0811
686.01  0.0790
686.02  0.0770
686.03  0.0750
686.04  0.0730
686.05  0.0710
686.06  0.0690
686.07  0.0674
686.08  0.0658
686.09  0.0641
686.10  0.0625
686.11  0.0608
686.12  0.0586
686.13  0.0570
686.14  0.0554
686.15  0.0538
686.16  0.0522
686.17  0.0509
686.18  0.0496
686.19  0.0483
686.20  0.0470
686.21  0.0457
686.22  0.0444
686.23  0.0432
686.24  0.0419
686.25  0.0406
686.26  0.0393
686.27  0.0383
686.28  0.0373
686.29  0.0362
686.30  0.0352
686.31  0.0342
686.32  0.0332
686.33  0.0322
686.34  0.0312
686.35  0.0301
686.36  0.0291
686.37  0.0283
686.38  0.0276
686.39  0.0268
686.40  0.0260
686.41  0.0252
686.42  0.0244
686.43  0.0236
686.44  0.0228
686.45  0.0221
686.46  0.0213
686.47  0.0207
686.48  0.0201
686.49  0.0195
686.50  0.0189
686.51  0.0183
686.52  0.0177
686.53  0.0171
686.54  0.0165
686.55  0.0159
686.56  0.0153
686.57  0.0149
686.58  0.0144
686.59  0.0140
686.60  0.0135
686.61  0.0131
686.62  0.0126
686.63  0.0122
686.64  0.0117
686.65  0.0113
686.66  0.0108
686.67  0.0105
686.68  0.0102
686.69  0.0098
686.70  0.0095
686.71  0.0092
686.72  0.0089
686.73  0.0085
686.74  0.0082
686.75  0.0079
686.76  0.0076
686.77  0.0073
686.78  0.0071
686.79  0.0068
686.80  0.0066
686.81  0.0064
686.82  0.0061
686.83  0.0059
686.84  0.0057
686.85  0.0054
686.86  0.0052
686.87  0.0050
686.88  0.0049
686.89  0.0047
686.90  0.0045
686.91  0.0043
686.92  0.0042
686.93  0.0040
686.94  0.0038
686.95  0.0037
686.96  0.0035
686.97  0.0034
686.98  0.0033
686.99  0.0032
687.00  0.0030
687.01  0.0029
687.02  0.0028
687.03  0.0027
687.04  0.0026
687.05  0.0025
687.06  0.0023
687.07  0.0023
687.08  0.0022
687.09  0.0021
687.10  0.0020
687.11  0.0019
687.12  0.0019
687.13  0.0018
687.14  0.0017
687.15  0.0016
687.16  0.0015
687.17  0.0015
687.18  0.0014
687.19  0.0014
687.20  0.0013
687.21  0.0013
687.22  0.0012
687.23  0.0012
687.24  0.0011
687.25  0.0010
687.26  0.0010
687.27  0.0010
687.28  0.0009
687.29  0.0009
687.30  0.0008
687.31  0.0008
687.32  0.0008
687.33  0.0007
687.34  0.0007
687.35  0.0007
687.36  0.0006
