# Provided by ESA in 10/2012
# Important Notes:
# The data contained here correspond to the OLCI Spectral Model CDR derived in 2011.
# The data have been calculated for the camera 4, pointing nadir.
612.65  0.0006
612.66  0.0006
612.67  0.0007
612.68  0.0007
612.69  0.0007
612.70  0.0008
612.71  0.0008
612.72  0.0008
612.73  0.0009
612.74  0.0009
612.75  0.0010
612.76  0.0010
612.77  0.0011
612.78  0.0011
612.79  0.0012
612.80  0.0012
612.81  0.0013
612.82  0.0013
612.83  0.0014
612.84  0.0014
612.85  0.0015
612.86  0.0016
612.87  0.0016
612.88  0.0017
612.89  0.0018
612.90  0.0019
612.91  0.0019
612.92  0.0020
612.93  0.0021
612.94  0.0022
612.95  0.0023
612.96  0.0024
612.97  0.0025
612.98  0.0026
612.99  0.0027
613.00  0.0028
613.01  0.0029
613.02  0.0030
613.03  0.0032
613.04  0.0033
613.05  0.0034
613.06  0.0035
613.07  0.0037
613.08  0.0039
613.09  0.0040
613.10  0.0042
613.11  0.0044
613.12  0.0045
613.13  0.0047
613.14  0.0048
613.15  0.0050
613.16  0.0052
613.17  0.0055
613.18  0.0057
613.19  0.0059
613.20  0.0061
613.21  0.0064
613.22  0.0066
613.23  0.0068
613.24  0.0071
613.25  0.0073
613.26  0.0076
613.27  0.0079
613.28  0.0082
613.29  0.0086
613.30  0.0089
613.31  0.0092
613.32  0.0095
613.33  0.0098
613.34  0.0101
613.35  0.0105
613.36  0.0109
613.37  0.0113
613.38  0.0118
613.39  0.0122
613.40  0.0126
613.41  0.0131
613.42  0.0135
613.43  0.0139
613.44  0.0143
613.45  0.0148
613.46  0.0154
613.47  0.0159
613.48  0.0165
613.49  0.0171
613.50  0.0177
613.51  0.0183
613.52  0.0188
613.53  0.0194
613.54  0.0200
613.55  0.0206
613.56  0.0213
613.57  0.0221
613.58  0.0229
613.59  0.0236
613.60  0.0244
613.61  0.0251
613.62  0.0259
613.63  0.0267
613.64  0.0274
613.65  0.0282
613.66  0.0292
613.67  0.0302
613.68  0.0311
613.69  0.0321
613.70  0.0331
613.71  0.0341
613.72  0.0351
613.73  0.0361
613.74  0.0370
613.75  0.0380
613.76  0.0393
613.77  0.0405
613.78  0.0418
613.79  0.0430
613.80  0.0443
613.81  0.0455
613.82  0.0468
613.83  0.0480
613.84  0.0493
613.85  0.0505
613.86  0.0521
613.87  0.0536
613.88  0.0552
613.89  0.0568
613.90  0.0589
613.91  0.0605
613.92  0.0621
613.93  0.0637
613.94  0.0653
613.95  0.0669
613.96  0.0688
613.97  0.0708
613.98  0.0727
613.99  0.0747
614.00  0.0766
614.01  0.0786
614.02  0.0805
614.03  0.0825
614.04  0.0845
614.05  0.0864
614.06  0.0888
614.07  0.0911
614.08  0.0935
614.09  0.0958
614.10  0.0981
614.11  0.1005
614.12  0.1029
614.13  0.1052
614.14  0.1076
614.15  0.1100
614.16  0.1128
614.17  0.1155
614.18  0.1183
614.19  0.1211
614.20  0.1239
614.21  0.1267
614.22  0.1295
614.23  0.1323
614.24  0.1351
614.25  0.1379
614.26  0.1412
614.27  0.1444
614.28  0.1476
614.29  0.1508
614.30  0.1541
614.31  0.1574
614.32  0.1606
614.33  0.1639
614.34  0.1672
614.35  0.1705
614.36  0.1741
614.37  0.1778
614.38  0.1815
614.39  0.1852
614.40  0.1889
614.41  0.1926
614.42  0.1964
614.43  0.2001
614.44  0.2039
614.45  0.2076
614.46  0.2118
614.47  0.2159
614.48  0.2200
614.49  0.2241
614.50  0.2283
614.51  0.2325
614.52  0.2367
614.53  0.2409
614.54  0.2451
614.55  0.2493
614.56  0.2539
614.57  0.2584
614.58  0.2629
614.59  0.2674
614.60  0.2720
614.61  0.2766
614.62  0.2813
614.63  0.2859
614.64  0.2905
614.65  0.2952
614.66  0.3001
614.67  0.3049
614.68  0.3098
614.69  0.3147
614.70  0.3196
614.71  0.3246
614.72  0.3296
614.73  0.3346
614.74  0.3396
614.75  0.3447
614.76  0.3498
614.77  0.3550
614.78  0.3601
614.79  0.3652
614.80  0.3704
614.81  0.3757
614.82  0.3810
614.83  0.3864
614.84  0.3917
614.85  0.3970
614.86  0.4023
614.87  0.4077
614.88  0.4130
614.89  0.4183
614.90  0.4236
614.91  0.4291
614.92  0.4347
614.93  0.4402
614.94  0.4458
614.95  0.4513
614.96  0.4567
614.97  0.4621
614.98  0.4675
614.99  0.4728
615.00  0.4782
615.01  0.4839
615.02  0.4895
615.03  0.4952
615.04  0.5008
615.05  0.5065
615.06  0.5118
615.07  0.5171
615.08  0.5224
615.09  0.5278
615.10  0.5331
615.11  0.5387
615.12  0.5444
615.13  0.5500
615.14  0.5557
615.15  0.5619
615.16  0.5671
615.17  0.5723
615.18  0.5775
615.19  0.5827
615.20  0.5879
615.21  0.5935
615.22  0.5990
615.23  0.6046
615.24  0.6101
615.25  0.6157
615.26  0.6206
615.27  0.6256
615.28  0.6305
615.29  0.6355
615.30  0.6404
615.31  0.6457
615.32  0.6511
615.33  0.6564
615.34  0.6617
615.35  0.6671
615.36  0.6717
615.37  0.6763
615.38  0.6809
615.39  0.6855
615.40  0.6901
615.41  0.6951
615.42  0.7001
615.43  0.7051
615.44  0.7101
615.45  0.7151
615.46  0.7193
615.47  0.7235
615.48  0.7277
615.49  0.7319
615.50  0.7361
615.51  0.7408
615.52  0.7454
615.53  0.7500
615.54  0.7546
615.55  0.7592
615.56  0.7630
615.57  0.7667
615.58  0.7705
615.59  0.7743
615.60  0.7780
615.61  0.7822
615.62  0.7863
615.63  0.7905
615.64  0.7947
615.65  0.7988
615.66  0.8021
615.67  0.8054
615.68  0.8087
615.69  0.8120
615.70  0.8153
615.71  0.8190
615.72  0.8226
615.73  0.8263
615.74  0.8300
615.75  0.8336
615.76  0.8365
615.77  0.8393
615.78  0.8422
615.79  0.8450
615.80  0.8479
615.81  0.8510
615.82  0.8542
615.83  0.8574
615.84  0.8605
615.85  0.8637
615.86  0.8661
615.87  0.8685
615.88  0.8710
615.89  0.8734
615.90  0.8758
615.91  0.8785
615.92  0.8812
615.93  0.8838
615.94  0.8865
615.95  0.8891
615.96  0.8912
615.97  0.8932
615.98  0.8953
615.99  0.8974
616.00  0.8994
616.01  0.9016
616.02  0.9038
616.03  0.9059
616.04  0.9081
616.05  0.9103
616.06  0.9120
616.07  0.9138
616.08  0.9155
616.09  0.9172
616.10  0.9190
616.11  0.9207
616.12  0.9224
616.13  0.9242
616.14  0.9259
616.15  0.9276
616.16  0.9291
616.17  0.9306
616.18  0.9320
616.19  0.9335
616.20  0.9350
616.21  0.9363
616.22  0.9376
616.23  0.9389
616.24  0.9402
616.25  0.9416
616.26  0.9428
616.27  0.9441
616.28  0.9453
616.29  0.9466
616.30  0.9479
616.31  0.9488
616.32  0.9498
616.33  0.9507
616.34  0.9516
616.35  0.9526
616.36  0.9537
616.37  0.9548
616.38  0.9559
616.39  0.9576
616.40  0.9587
616.41  0.9594
616.42  0.9600
616.43  0.9607
616.44  0.9613
616.45  0.9620
616.46  0.9630
616.47  0.9640
616.48  0.9650
616.49  0.9660
616.50  0.9670
616.51  0.9674
616.52  0.9677
616.53  0.9681
616.54  0.9685
616.55  0.9689
616.56  0.9698
616.57  0.9707
616.58  0.9716
616.59  0.9725
616.60  0.9734
616.61  0.9736
616.62  0.9737
616.63  0.9739
616.64  0.9741
616.65  0.9742
616.66  0.9750
616.67  0.9758
616.68  0.9766
616.69  0.9774
616.70  0.9783
616.71  0.9783
616.72  0.9783
616.73  0.9783
616.74  0.9782
616.75  0.9782
616.76  0.9790
616.77  0.9797
616.78  0.9804
616.79  0.9811
616.80  0.9819
616.81  0.9818
616.82  0.9816
616.83  0.9815
616.84  0.9813
616.85  0.9812
616.86  0.9818
616.87  0.9825
616.88  0.9831
616.89  0.9838
616.90  0.9845
616.91  0.9842
616.92  0.9840
616.93  0.9838
616.94  0.9836
616.95  0.9833
616.96  0.9839
616.97  0.9844
616.98  0.9850
616.99  0.9855
617.00  0.9862
617.01  0.9859
617.02  0.9856
617.03  0.9854
617.04  0.9851
617.05  0.9848
617.06  0.9853
617.07  0.9858
617.08  0.9862
617.09  0.9867
617.10  0.9873
617.11  0.9870
617.12  0.9867
617.13  0.9864
617.14  0.9862
617.15  0.9859
617.16  0.9863
617.17  0.9866
617.18  0.9870
617.19  0.9874
617.20  0.9879
617.21  0.9876
617.22  0.9874
617.23  0.9871
617.24  0.9869
617.25  0.9867
617.26  0.9869
617.27  0.9872
617.28  0.9875
617.29  0.9877
617.30  0.9882
617.31  0.9880
617.32  0.9878
617.33  0.9877
617.34  0.9875
617.35  0.9873
617.36  0.9875
617.37  0.9876
617.38  0.9878
617.39  0.9880
617.40  0.9884
617.41  0.9883
617.42  0.9882
617.43  0.9881
617.44  0.9880
617.45  0.9879
617.46  0.9880
617.47  0.9880
617.48  0.9881
617.49  0.9882
617.50  0.9885
617.51  0.9885
617.52  0.9885
617.53  0.9885
617.54  0.9885
617.55  0.9886
617.56  0.9885
617.57  0.9885
617.58  0.9884
617.59  0.9884
617.60  0.9887
617.61  0.9888
617.62  0.9889
617.63  0.9890
617.64  0.9897
617.65  0.9898
617.66  0.9897
617.67  0.9896
617.68  0.9895
617.69  0.9894
617.70  0.9896
617.71  0.9899
617.72  0.9901
617.73  0.9903
617.74  0.9906
617.75  0.9908
617.76  0.9906
617.77  0.9904
617.78  0.9902
617.79  0.9900
617.80  0.9902
617.81  0.9905
617.82  0.9909
617.83  0.9912
617.84  0.9915
617.85  0.9918
617.86  0.9916
617.87  0.9913
617.88  0.9910
617.89  0.9907
617.90  0.9909
617.91  0.9913
617.92  0.9916
617.93  0.9920
617.94  0.9924
617.95  0.9928
617.96  0.9925
617.97  0.9921
617.98  0.9918
617.99  0.9915
618.00  0.9916
618.01  0.9920
618.02  0.9924
618.03  0.9928
618.04  0.9932
618.05  0.9936
618.06  0.9933
618.07  0.9929
618.08  0.9925
618.09  0.9922
618.10  0.9922
618.11  0.9926
618.12  0.9930
618.13  0.9934
618.14  0.9938
618.15  0.9943
618.16  0.9939
618.17  0.9935
618.18  0.9931
618.19  0.9928
618.20  0.9927
618.21  0.9931
618.22  0.9935
618.23  0.9939
618.24  0.9943
618.25  0.9948
618.26  0.9944
618.27  0.9940
618.28  0.9936
618.29  0.9932
618.30  0.9932
618.31  0.9935
618.32  0.9939
618.33  0.9942
618.34  0.9946
618.35  0.9950
618.36  0.9947
618.37  0.9943
618.38  0.9940
618.39  0.9936
618.40  0.9935
618.41  0.9938
618.42  0.9941
618.43  0.9944
618.44  0.9947
618.45  0.9951
618.46  0.9948
618.47  0.9945
618.48  0.9942
618.49  0.9939
618.50  0.9938
618.51  0.9940
618.52  0.9942
618.53  0.9944
618.54  0.9946
618.55  0.9950
618.56  0.9948
618.57  0.9946
618.58  0.9944
618.59  0.9942
618.60  0.9940
618.61  0.9941
618.62  0.9942
618.63  0.9943
618.64  0.9945
618.65  0.9948
618.66  0.9941
618.67  0.9940
618.68  0.9940
618.69  0.9939
618.70  0.9936
618.71  0.9937
618.72  0.9937
618.73  0.9938
618.74  0.9939
618.75  0.9942
618.76  0.9942
618.77  0.9942
618.78  0.9942
618.79  0.9942
618.80  0.9939
618.81  0.9939
618.82  0.9938
618.83  0.9938
618.84  0.9938
618.85  0.9940
618.86  0.9941
618.87  0.9943
618.88  0.9944
618.89  0.9951
618.90  0.9947
618.91  0.9946
618.92  0.9945
618.93  0.9944
618.94  0.9943
618.95  0.9945
618.96  0.9948
618.97  0.9950
618.98  0.9952
618.99  0.9955
619.00  0.9951
619.01  0.9949
619.02  0.9947
619.03  0.9945
619.04  0.9943
619.05  0.9945
619.06  0.9948
619.07  0.9951
619.08  0.9954
619.09  0.9958
619.10  0.9953
619.11  0.9951
619.12  0.9948
619.13  0.9945
619.14  0.9943
619.15  0.9944
619.16  0.9948
619.17  0.9952
619.18  0.9955
619.19  0.9959
619.20  0.9955
619.21  0.9951
619.22  0.9948
619.23  0.9945
619.24  0.9941
619.25  0.9942
619.26  0.9946
619.27  0.9950
619.28  0.9955
619.29  0.9959
619.30  0.9954
619.31  0.9950
619.32  0.9947
619.33  0.9943
619.34  0.9939
619.35  0.9940
619.36  0.9944
619.37  0.9948
619.38  0.9952
619.39  0.9956
619.40  0.9951
619.41  0.9947
619.42  0.9944
619.43  0.9940
619.44  0.9936
619.45  0.9936
619.46  0.9940
619.47  0.9943
619.48  0.9947
619.49  0.9951
619.50  0.9947
619.51  0.9943
619.52  0.9939
619.53  0.9935
619.54  0.9932
619.55  0.9931
619.56  0.9934
619.57  0.9938
619.58  0.9941
619.59  0.9945
619.60  0.9941
619.61  0.9937
619.62  0.9934
619.63  0.9930
619.64  0.9927
619.65  0.9926
619.66  0.9928
619.67  0.9931
619.68  0.9934
619.69  0.9937
619.70  0.9934
619.71  0.9931
619.72  0.9928
619.73  0.9925
619.74  0.9922
619.75  0.9921
619.76  0.9923
619.77  0.9925
619.78  0.9927
619.79  0.9929
619.80  0.9927
619.81  0.9925
619.82  0.9923
619.83  0.9921
619.84  0.9918
619.85  0.9916
619.86  0.9918
619.87  0.9919
619.88  0.9920
619.89  0.9921
619.90  0.9920
619.91  0.9913
619.92  0.9912
619.93  0.9911
619.94  0.9911
619.95  0.9908
619.96  0.9909
619.97  0.9909
619.98  0.9910
619.99  0.9911
620.00  0.9911
620.01  0.9911
620.02  0.9911
620.03  0.9912
620.04  0.9912
620.05  0.9909
620.06  0.9909
620.07  0.9909
620.08  0.9909
620.09  0.9909
620.10  0.9910
620.11  0.9911
620.12  0.9913
620.13  0.9914
620.14  0.9921
620.15  0.9918
620.16  0.9917
620.17  0.9917
620.18  0.9916
620.19  0.9915
620.20  0.9917
620.21  0.9920
620.22  0.9922
620.23  0.9925
620.24  0.9928
620.25  0.9924
620.26  0.9922
620.27  0.9921
620.28  0.9919
620.29  0.9917
620.30  0.9921
620.31  0.9924
620.32  0.9927
620.33  0.9931
620.34  0.9934
620.35  0.9930
620.36  0.9928
620.37  0.9925
620.38  0.9923
620.39  0.9920
620.40  0.9924
620.41  0.9928
620.42  0.9932
620.43  0.9936
620.44  0.9940
620.45  0.9936
620.46  0.9933
620.47  0.9930
620.48  0.9927
620.49  0.9924
620.50  0.9928
620.51  0.9933
620.52  0.9937
620.53  0.9941
620.54  0.9946
620.55  0.9941
620.56  0.9938
620.57  0.9934
620.58  0.9931
620.59  0.9927
620.60  0.9932
620.61  0.9936
620.62  0.9940
620.63  0.9945
620.64  0.9949
620.65  0.9945
620.66  0.9941
620.67  0.9937
620.68  0.9934
620.69  0.9930
620.70  0.9934
620.71  0.9938
620.72  0.9943
620.73  0.9947
620.74  0.9951
620.75  0.9947
620.76  0.9943
620.77  0.9940
620.78  0.9936
620.79  0.9932
620.80  0.9936
620.81  0.9940
620.82  0.9944
620.83  0.9947
620.84  0.9951
620.85  0.9947
620.86  0.9944
620.87  0.9941
620.88  0.9938
620.89  0.9934
620.90  0.9937
620.91  0.9941
620.92  0.9944
620.93  0.9947
620.94  0.9950
620.95  0.9947
620.96  0.9944
620.97  0.9942
620.98  0.9939
620.99  0.9936
621.00  0.9939
621.01  0.9941
621.02  0.9943
621.03  0.9946
621.04  0.9948
621.05  0.9946
621.06  0.9944
621.07  0.9942
621.08  0.9941
621.09  0.9939
621.10  0.9940
621.11  0.9942
621.12  0.9943
621.13  0.9945
621.14  0.9946
621.15  0.9945
621.16  0.9939
621.17  0.9938
621.18  0.9937
621.19  0.9937
621.20  0.9938
621.21  0.9939
621.22  0.9939
621.23  0.9940
621.24  0.9941
621.25  0.9941
621.26  0.9942
621.27  0.9942
621.28  0.9943
621.29  0.9943
621.30  0.9943
621.31  0.9943
621.32  0.9942
621.33  0.9942
621.34  0.9942
621.35  0.9943
621.36  0.9945
621.37  0.9946
621.38  0.9947
621.39  0.9955
621.40  0.9954
621.41  0.9953
621.42  0.9952
621.43  0.9951
621.44  0.9951
621.45  0.9953
621.46  0.9956
621.47  0.9958
621.48  0.9961
621.49  0.9963
621.50  0.9962
621.51  0.9960
621.52  0.9958
621.53  0.9956
621.54  0.9955
621.55  0.9958
621.56  0.9962
621.57  0.9965
621.58  0.9968
621.59  0.9972
621.60  0.9969
621.61  0.9967
621.62  0.9964
621.63  0.9962
621.64  0.9959
621.65  0.9963
621.66  0.9967
621.67  0.9971
621.68  0.9975
621.69  0.9979
621.70  0.9976
621.71  0.9973
621.72  0.9970
621.73  0.9967
621.74  0.9964
621.75  0.9968
621.76  0.9973
621.77  0.9977
621.78  0.9981
621.79  0.9986
621.80  0.9982
621.81  0.9979
621.82  0.9975
621.83  0.9972
621.84  0.9968
621.85  0.9973
621.86  0.9977
621.87  0.9981
621.88  0.9986
621.89  0.9990
621.90  0.9987
621.91  0.9983
621.92  0.9979
621.93  0.9975
621.94  0.9972
621.95  0.9976
621.96  0.9980
621.97  0.9984
621.98  0.9989
621.99  0.9993
622.00  0.9989
622.01  0.9985
622.02  0.9982
622.03  0.9978
622.04  0.9975
622.05  0.9978
622.06  0.9982
622.07  0.9986
622.08  0.9990
622.09  0.9993
622.10  0.9990
622.11  0.9987
622.12  0.9983
622.13  0.9980
622.14  0.9977
622.15  0.9980
622.16  0.9983
622.17  0.9986
622.18  0.9989
622.19  0.9993
622.20  0.9990
622.21  0.9987
622.22  0.9984
622.23  0.9982
622.24  0.9979
622.25  0.9981
622.26  0.9984
622.27  0.9986
622.28  0.9989
622.29  0.9991
622.30  0.9989
622.31  0.9987
622.32  0.9985
622.33  0.9984
622.34  0.9982
622.35  0.9983
622.36  0.9985
622.37  0.9986
622.38  0.9988
622.39  0.9989
622.40  0.9983
622.41  0.9982
622.42  0.9981
622.43  0.9981
622.44  0.9980
622.45  0.9981
622.46  0.9982
622.47  0.9983
622.48  0.9983
622.49  0.9984
622.50  0.9985
622.51  0.9985
622.52  0.9985
622.53  0.9986
622.54  0.9986
622.55  0.9986
622.56  0.9986
622.57  0.9986
622.58  0.9985
622.59  0.9985
622.60  0.9987
622.61  0.9988
622.62  0.9989
622.63  0.9991
622.64  0.9992
622.65  0.9991
622.66  0.9989
622.67  0.9988
622.68  0.9987
622.69  0.9986
622.70  0.9988
622.71  0.9990
622.72  0.9992
622.73  0.9995
622.74  0.9997
622.75  0.9995
622.76  0.9992
622.77  0.9990
622.78  0.9988
622.79  0.9986
622.80  0.9989
622.81  0.9991
622.82  0.9994
622.83  0.9997
622.84  1.0000
622.85  0.9997
622.86  0.9993
622.87  0.9990
622.88  0.9987
622.89  0.9984
622.90  0.9987
622.91  0.9990
622.92  0.9993
622.93  0.9997
622.94  1.0000
622.95  0.9996
622.96  0.9991
622.97  0.9987
622.98  0.9983
622.99  0.9979
623.00  0.9982
623.01  0.9985
623.02  0.9988
623.03  0.9991
623.04  0.9995
623.05  0.9989
623.06  0.9984
623.07  0.9979
623.08  0.9974
623.09  0.9969
623.10  0.9972
623.11  0.9974
623.12  0.9977
623.13  0.9980
623.14  0.9983
623.15  0.9977
623.16  0.9970
623.17  0.9964
623.18  0.9958
623.19  0.9952
623.20  0.9954
623.21  0.9956
623.22  0.9958
623.23  0.9960
623.24  0.9962
623.25  0.9955
623.26  0.9948
623.27  0.9941
623.28  0.9934
623.29  0.9927
623.30  0.9928
623.31  0.9928
623.32  0.9929
623.33  0.9929
623.34  0.9930
623.35  0.9922
623.36  0.9915
623.37  0.9907
623.38  0.9899
623.39  0.9891
623.40  0.9890
623.41  0.9889
623.42  0.9888
623.43  0.9886
623.44  0.9885
623.45  0.9876
623.46  0.9868
623.47  0.9859
623.48  0.9851
623.49  0.9842
623.50  0.9839
623.51  0.9835
623.52  0.9832
623.53  0.9828
623.54  0.9825
623.55  0.9815
623.56  0.9805
623.57  0.9796
623.58  0.9786
623.59  0.9776
623.60  0.9770
623.61  0.9764
623.62  0.9758
623.63  0.9751
623.64  0.9745
623.65  0.9728
623.66  0.9718
623.67  0.9707
623.68  0.9696
623.69  0.9686
623.70  0.9676
623.71  0.9667
623.72  0.9658
623.73  0.9649
623.74  0.9640
623.75  0.9627
623.76  0.9615
623.77  0.9602
623.78  0.9590
623.79  0.9578
623.80  0.9565
623.81  0.9552
623.82  0.9539
623.83  0.9526
623.84  0.9513
623.85  0.9498
623.86  0.9484
623.87  0.9469
623.88  0.9455
623.89  0.9440
623.90  0.9423
623.91  0.9406
623.92  0.9389
623.93  0.9371
623.94  0.9354
623.95  0.9337
623.96  0.9320
623.97  0.9302
623.98  0.9285
623.99  0.9268
624.00  0.9246
624.01  0.9224
624.02  0.9203
624.03  0.9181
624.04  0.9159
624.05  0.9139
624.06  0.9118
624.07  0.9098
624.08  0.9077
624.09  0.9056
624.10  0.9030
624.11  0.9003
624.12  0.8976
624.13  0.8950
624.14  0.8923
624.15  0.8899
624.16  0.8874
624.17  0.8850
624.18  0.8826
624.19  0.8801
624.20  0.8769
624.21  0.8738
624.22  0.8706
624.23  0.8674
624.24  0.8642
624.25  0.8613
624.26  0.8585
624.27  0.8556
624.28  0.8528
624.29  0.8499
624.30  0.8462
624.31  0.8425
624.32  0.8388
624.33  0.8351
624.34  0.8314
624.35  0.8281
624.36  0.8247
624.37  0.8214
624.38  0.8181
624.39  0.8148
624.40  0.8105
624.41  0.8063
624.42  0.8021
624.43  0.7979
624.44  0.7937
624.45  0.7899
624.46  0.7861
624.47  0.7823
624.48  0.7785
624.49  0.7747
624.50  0.7701
624.51  0.7654
624.52  0.7607
624.53  0.7560
624.54  0.7513
624.55  0.7471
624.56  0.7428
624.57  0.7386
624.58  0.7343
624.59  0.7301
624.60  0.7250
624.61  0.7199
624.62  0.7148
624.63  0.7097
624.64  0.7046
624.65  0.7000
624.66  0.6953
624.67  0.6906
624.68  0.6859
624.69  0.6813
624.70  0.6759
624.71  0.6704
624.72  0.6650
624.73  0.6596
624.74  0.6542
624.75  0.6492
624.76  0.6442
624.77  0.6391
624.78  0.6341
624.79  0.6291
624.80  0.6234
624.81  0.6178
624.82  0.6121
624.83  0.6065
624.84  0.6009
624.85  0.5956
624.86  0.5903
624.87  0.5850
624.88  0.5797
624.89  0.5744
624.90  0.5680
624.91  0.5623
624.92  0.5566
624.93  0.5508
624.94  0.5451
624.95  0.5397
624.96  0.5342
624.97  0.5288
624.98  0.5234
624.99  0.5179
625.00  0.5122
625.01  0.5064
625.02  0.5007
625.03  0.4949
625.04  0.4892
625.05  0.4837
625.06  0.4782
625.07  0.4727
625.08  0.4672
625.09  0.4618
625.10  0.4561
625.11  0.4505
625.12  0.4448
625.13  0.4392
625.14  0.4335
625.15  0.4281
625.16  0.4227
625.17  0.4172
625.18  0.4118
625.19  0.4064
625.20  0.4010
625.21  0.3955
625.22  0.3901
625.23  0.3847
625.24  0.3792
625.25  0.3740
625.26  0.3687
625.27  0.3635
625.28  0.3582
625.29  0.3530
625.30  0.3478
625.31  0.3427
625.32  0.3376
625.33  0.3325
625.34  0.3273
625.35  0.3223
625.36  0.3174
625.37  0.3124
625.38  0.3074
625.39  0.3024
625.40  0.2977
625.41  0.2929
625.42  0.2882
625.43  0.2834
625.44  0.2787
625.45  0.2741
625.46  0.2694
625.47  0.2648
625.48  0.2602
625.49  0.2555
625.50  0.2512
625.51  0.2469
625.52  0.2426
625.53  0.2383
625.54  0.2340
625.55  0.2298
625.56  0.2256
625.57  0.2214
625.58  0.2171
625.59  0.2129
625.60  0.2091
625.61  0.2052
625.62  0.2014
625.63  0.1976
625.64  0.1937
625.65  0.1900
625.66  0.1862
625.67  0.1824
625.68  0.1786
625.69  0.1749
625.70  0.1715
625.71  0.1682
625.72  0.1648
625.73  0.1615
625.74  0.1581
625.75  0.1548
625.76  0.1515
625.77  0.1482
625.78  0.1449
625.79  0.1416
625.80  0.1387
625.81  0.1358
625.82  0.1329
625.83  0.1300
625.84  0.1272
625.85  0.1243
625.86  0.1215
625.87  0.1186
625.88  0.1158
625.89  0.1129
625.90  0.1105
625.91  0.1081
625.92  0.1057
625.93  0.1032
625.94  0.1008
625.95  0.0984
625.96  0.0960
625.97  0.0936
625.98  0.0912
625.99  0.0888
626.00  0.0868
626.01  0.0848
626.02  0.0827
626.03  0.0807
626.04  0.0787
626.05  0.0767
626.06  0.0747
626.07  0.0727
626.08  0.0708
626.09  0.0688
626.10  0.0671
626.11  0.0655
626.12  0.0639
626.13  0.0622
626.14  0.0606
626.15  0.0584
626.16  0.0568
626.17  0.0552
626.18  0.0536
626.19  0.0520
626.20  0.0507
626.21  0.0494
626.22  0.0481
626.23  0.0468
626.24  0.0455
626.25  0.0443
626.26  0.0430
626.27  0.0417
626.28  0.0404
626.29  0.0391
626.30  0.0381
626.31  0.0371
626.32  0.0361
626.33  0.0351
626.34  0.0341
626.35  0.0330
626.36  0.0320
626.37  0.0310
626.38  0.0300
626.39  0.0290
626.40  0.0282
626.41  0.0274
626.42  0.0267
626.43  0.0259
626.44  0.0251
626.45  0.0243
626.46  0.0235
626.47  0.0227
626.48  0.0220
626.49  0.0212
626.50  0.0206
626.51  0.0200
626.52  0.0194
626.53  0.0188
626.54  0.0182
626.55  0.0176
626.56  0.0170
626.57  0.0164
626.58  0.0158
626.59  0.0152
626.60  0.0148
626.61  0.0143
626.62  0.0139
626.63  0.0134
626.64  0.0130
626.65  0.0126
626.66  0.0121
626.67  0.0117
626.68  0.0112
626.69  0.0108
626.70  0.0105
626.71  0.0101
626.72  0.0098
626.73  0.0095
626.74  0.0091
626.75  0.0088
626.76  0.0085
626.77  0.0082
626.78  0.0078
626.79  0.0075
626.80  0.0073
626.81  0.0070
626.82  0.0068
626.83  0.0066
626.84  0.0063
626.85  0.0061
626.86  0.0059
626.87  0.0056
626.88  0.0054
626.89  0.0052
626.90  0.0050
626.91  0.0048
626.92  0.0047
626.93  0.0045
626.94  0.0043
626.95  0.0042
626.96  0.0040
626.97  0.0038
626.98  0.0037
626.99  0.0035
627.00  0.0034
627.01  0.0033
627.02  0.0031
627.03  0.0030
627.04  0.0029
627.05  0.0028
627.06  0.0027
627.07  0.0026
627.08  0.0024
627.09  0.0023
627.10  0.0022
627.11  0.0022
627.12  0.0021
627.13  0.0020
627.14  0.0019
627.15  0.0018
627.16  0.0018
627.17  0.0017
627.18  0.0016
627.19  0.0015
627.20  0.0015
627.21  0.0014
627.22  0.0014
627.23  0.0013
627.24  0.0013
627.25  0.0012
627.26  0.0011
627.27  0.0011
627.28  0.0010
627.29  0.0010
627.30  0.0009
627.31  0.0009
627.32  0.0009
627.33  0.0008
627.34  0.0008
627.35  0.0008
627.36  0.0007
627.37  0.0007
627.38  0.0007
627.39  0.0006
