# Molecule:    NO2 (nitrogen dioxide)
# Temperature: 273 K
# File type:   absorption cross-sections in cm2/molecule
# Instrument:  GOME FM grating spectrometer
# Resolution:  wavelength dependent 0.2-0.4 nm
# Reference:   Burrows et al., JQSRT 60(6), 1025-1031, 1998
# Contact:     orphal@physik.uni-bremen.de

    230.91383   6.78872E-20
    231.04039   7.16002E-20
    231.16689   6.67698E-20
    231.29330   7.39049E-20
    231.41966   7.09413E-20
    231.54593   6.84968E-20
    231.67215   7.50746E-20
    231.79828   7.73149E-20
    231.92436   7.48148E-20
    232.05035   7.34115E-20
    232.17630   7.64278E-20
    232.30215   7.78437E-20
    232.42796   7.75531E-20
    232.55368   8.02224E-20
    232.67935   9.55062E-20
    232.80493   1.11243E-19
    232.93047   1.36384E-19
    233.05592   1.54238E-19
    233.18130   1.59360E-19
    233.30663   1.54214E-19
    233.43188   1.46631E-19
    233.55707   1.38672E-19
    233.68219   1.31683E-19
    233.80725   1.26648E-19
    233.93224   1.22685E-19
    234.05716   1.19081E-19
    234.18201   1.15099E-19
    234.30679   1.11197E-19
    234.43152   1.08250E-19
    234.55618   1.07313E-19
    234.68077   1.10258E-19
    234.80530   1.19808E-19
    234.92976   1.37387E-19
    235.05415   1.58765E-19
    235.17848   1.79399E-19
    235.30275   1.96288E-19
    235.42696   2.02115E-19
    235.55109   1.92415E-19
    235.67517   1.75291E-19
    235.79918   1.57158E-19
    235.92313   1.41692E-19
    236.04700   1.32781E-19
    236.17082   1.34322E-19
    236.29457   1.43603E-19
    236.41827   1.51131E-19
    236.54190   1.52316E-19
    236.66547   1.49386E-19
    236.78897   1.46787E-19
    236.91240   1.47298E-19
    237.03578   1.51835E-19
    237.15910   1.59422E-19
    237.28235   1.67726E-19
    237.40555   1.73834E-19
    237.52867   1.75563E-19
    237.65173   1.71662E-19
    237.77475   1.62036E-19
    237.89769   1.49231E-19
    238.02057   1.35149E-19
    238.14340   1.21312E-19
    238.26616   1.08011E-19
    238.38885   9.58073E-20
    238.51151   8.51471E-20
    238.63408   7.71751E-20
    238.75661   7.36904E-20
    238.87906   7.81345E-20
    239.00146   9.36711E-20
    239.12381   1.13464E-19
    239.24609   1.22881E-19
    239.36832   1.18886E-19
    239.49048   1.08242E-19
    239.61258   9.56879E-20
    239.73462   8.38935E-20
    239.85660   7.37340E-20
    239.97853   6.53510E-20
    240.10040   5.86754E-20
    240.22221   5.35767E-20
    240.34396   4.97508E-20
    240.46565   4.64862E-20
    240.58730   4.30747E-20
    240.70886   3.95526E-20
    240.83038   3.61299E-20
    240.95186   3.30755E-20
    241.07326   3.07082E-20
    241.19461   2.91636E-20
    241.31590   2.84131E-20
    241.43713   2.86277E-20
    241.55832   3.02004E-20
    241.67943   3.45494E-20
    241.80051   4.52774E-20
    241.92151   6.96478E-20
    242.04247   1.08338E-19
    242.16336   1.42612E-19
    242.28419   1.51814E-19
    242.40498   1.38862E-19
    242.52571   1.17892E-19
    242.64639   9.77087E-20
    242.76701   8.22340E-20
    242.88757   7.29883E-20
    243.00809   7.02307E-20
    243.12856   6.97402E-20
    243.24895   6.59227E-20
    243.36929   5.92636E-20
    243.48959   5.20205E-20
    243.60983   4.53261E-20
    243.73001   4.00007E-20
    243.85014   3.59163E-20
    243.97021   3.28111E-20
    244.09024   3.05975E-20
    244.21022   2.92477E-20
    244.33014   2.87657E-20
    244.45000   2.98363E-20
    244.56981   3.46789E-20
    244.68956   4.58442E-20
    244.80927   5.55522E-20
    244.92892   5.41902E-20
    245.04852   4.69215E-20
    245.16808   3.96936E-20
    245.28757   3.37022E-20
    245.40701   2.93583E-20
    245.52641   2.58794E-20
    245.64575   2.42280E-20
    245.76505   2.54594E-20
    245.88428   3.89912E-20
    246.00348   5.13073E-20
    246.12260   4.62521E-20
    246.24170   3.91318E-20
    246.36073   3.29974E-20
    246.47972   2.92917E-20
    246.59865   2.55122E-20
    246.71753   2.40952E-20
    246.83638   2.22319E-20
    246.95515   2.07300E-20
    247.07390   2.02539E-20
    247.19258   1.88756E-20
    247.31122   1.83508E-20
    247.42979   1.80667E-20
    247.54834   1.73768E-20
    247.66682   1.71030E-20
    247.78526   1.70581E-20
    247.90366   1.67341E-20
    248.02199   1.64481E-20
    248.14029   1.64273E-20
    248.25853   1.63780E-20
    248.37672   1.62618E-20
    248.49487   1.62555E-20
    248.61298   1.63559E-20
    248.73102   1.65080E-20
    248.84903   1.68727E-20
    248.96698   1.98069E-20
    249.08490   3.82709E-20
    249.20276   5.85958E-20
    249.32057   5.53686E-20
    249.43834   4.74329E-20
    249.55606   3.99793E-20
    249.67374   3.45863E-20
    249.79137   2.98123E-20
    249.90895   2.66455E-20
    250.02647   2.52928E-20
    250.14397   2.21324E-20
    250.26141   2.22848E-20
    250.37881   2.07862E-20
    250.49615   1.95240E-20
    250.61346   1.98753E-20
    250.73073   1.90903E-20
    250.84795   1.82784E-20
    250.96512   1.83307E-20
    251.08223   1.82008E-20
    251.19931   1.76750E-20
    251.31635   1.74322E-20
    251.43333   1.75143E-20
    251.55028   1.73580E-20
    251.66719   1.71763E-20
    251.78404   1.71427E-20
    251.90085   1.73209E-20
    252.01762   1.73678E-20
    252.13435   1.74422E-20
    252.25102   1.75054E-20
    252.36766   1.76186E-20
    252.48427   1.77150E-20
    252.60081   1.77351E-20
    252.71732   1.78394E-20
    252.83379   1.80030E-20
    252.95021   1.81835E-20
    253.06659   1.82773E-20
    253.18292   1.82892E-20
    253.29921   1.82703E-20
    253.41547   1.82949E-20
    253.53168   1.83071E-20
    253.64784   1.83916E-20
    253.76396   1.86083E-20
    253.88005   1.90462E-20
    253.99609   1.92417E-20
    254.11209   1.94141E-20
    254.22804   1.94934E-20
    254.34396   1.94309E-20
    254.45984   1.93234E-20
    254.57568   1.92832E-20
    254.69147   1.92211E-20
    254.80722   1.92340E-20
    254.92294   1.92319E-20
    255.03860   1.92742E-20
    255.15424   1.93589E-20
    255.26984   1.95140E-20
    255.38538   1.96886E-20
    255.50090   1.99093E-20
    255.61636   2.00958E-20
    255.73180   2.02619E-20
    255.84718   2.03299E-20
    255.96254   2.03022E-20
    256.07785   2.01498E-20
    256.19312   2.00052E-20
    256.30835   1.98868E-20
    256.42355   1.98310E-20
    256.53870   1.98009E-20
    256.65384   1.98001E-20
    256.76889   1.98355E-20
    256.88394   1.99200E-20
    256.99896   2.00816E-20
    257.11392   2.02399E-20
    257.22885   2.04168E-20
    257.34372   2.06179E-20
    257.45859   2.08098E-20
    257.57339   2.11482E-20
    257.68817   2.14035E-20
    257.80289   2.15944E-20
    257.91760   2.17292E-20
    258.03226   2.18069E-20
    258.14688   2.16997E-20
    258.26147   2.15864E-20
    258.37604   2.14619E-20
    258.49054   2.14617E-20
    258.60501   2.16124E-20
    258.71945   2.19331E-20
    258.83386   2.23740E-20
    258.94824   2.28440E-20
    259.06256   2.32617E-20
    259.17685   2.35204E-20
    259.29111   2.36547E-20
    259.40533   2.36588E-20
    259.51953   2.35710E-20
    259.63370   2.34785E-20
    259.74780   2.33795E-20
    259.86188   2.32441E-20
    259.97592   2.30989E-20
    260.08994   2.29359E-20
    260.20392   2.27400E-20
    260.31787   2.25728E-20
    260.43176   2.25356E-20
    260.54565   2.26390E-20
    260.65948   2.28477E-20
    260.77328   2.30909E-20
    260.88705   2.33351E-20
    261.00079   2.35607E-20
    261.11450   2.38347E-20
    261.22818   2.40754E-20
    261.34180   2.43181E-20
    261.45541   2.44208E-20
    261.56897   2.44360E-20
    261.68250   2.43631E-20
    261.79602   2.41936E-20
    261.90948   2.40462E-20
    262.02292   2.39703E-20
    262.13632   2.40218E-20
    262.24969   2.42178E-20
    262.36301   2.45271E-20
    262.47632   2.49904E-20
    262.58960   2.54969E-20
    262.70282   2.59742E-20
    262.81604   2.64805E-20
    262.92920   2.68930E-20
    263.04236   2.71733E-20
    263.15546   2.72560E-20
    263.26855   2.72064E-20
    263.38159   2.71153E-20
    263.49460   2.70576E-20
    263.60760   2.70628E-20
    263.72055   2.71722E-20
    263.83347   2.73342E-20
    263.94635   2.73916E-20
    264.05920   2.73441E-20
    264.17206   2.72415E-20
    264.28485   2.72133E-20
    264.39761   2.73099E-20
    264.51035   2.75391E-20
    264.62305   2.78485E-20
    264.73572   2.81825E-20
    264.84839   2.84868E-20
    264.96100   2.87605E-20
    265.07358   2.90016E-20
    265.18613   2.92425E-20
    265.29868   2.93611E-20
    265.41116   2.93667E-20
    265.52362   2.92458E-20
    265.63608   2.90679E-20
    265.74847   2.89126E-20
    265.86084   2.87948E-20
    265.97321   2.85997E-20
    266.08551   2.83847E-20
    266.19781   2.81929E-20
    266.31009   2.81162E-20
    266.42230   2.81894E-20
    266.53452   2.83915E-20
    266.64670   2.87179E-20
    266.75885   2.91015E-20
    266.87097   2.95339E-20
    266.98306   3.00179E-20
    267.09512   3.05392E-20
    267.20715   3.09521E-20
    267.31918   3.11518E-20
    267.43115   3.11117E-20
    267.54312   3.09462E-20
    267.65503   3.07140E-20
    267.76694   3.05536E-20
    267.87881   3.05311E-20
    267.99066   3.07165E-20
    268.10248   3.11488E-20
    268.21426   3.18113E-20
    268.32602   3.25711E-20
    268.43777   3.33300E-20
    268.54947   3.39672E-20
    268.66116   3.45128E-20
    268.77283   3.50155E-20
    268.88446   3.54590E-20
    268.99606   3.57668E-20
    269.10764   3.59252E-20
    269.21918   3.59286E-20
    269.33072   3.58008E-20
    269.44223   3.56056E-20
    269.55368   3.54261E-20
    269.66513   3.52614E-20
    269.77658   3.51675E-20
    269.88797   3.50923E-20
    269.99933   3.51076E-20
    270.11069   3.51430E-20
    270.22202   3.51598E-20
    270.33331   3.51781E-20
    270.44458   3.51765E-20
    270.55585   3.51007E-20
    270.66708   3.49926E-20
    270.77826   3.49393E-20
    270.88943   3.49817E-20
    271.00061   3.50785E-20
    271.11172   3.50580E-20
    271.22284   3.49154E-20
    271.33392   3.47236E-20
    271.44498   3.46422E-20
    271.55600   3.46329E-20
    271.66699   3.47254E-20
    271.77798   3.48660E-20
    271.88895   3.51384E-20
    271.99988   3.55183E-20
    272.11081   3.60649E-20
    272.22168   3.66718E-20
    272.33255   3.71938E-20
    272.44339   3.76346E-20
    272.55423   3.80552E-20
    272.66501   3.86299E-20
    272.77579   3.94262E-20
    272.88654   4.03736E-20
    272.99728   4.12352E-20
    273.10797   4.18954E-20
    273.21866   4.22681E-20
    273.32932   4.23941E-20
    273.43997   4.22957E-20
    273.55060   4.20821E-20
    273.66119   4.19036E-20
    273.77176   4.18776E-20
    273.88232   4.21627E-20
    273.99283   4.27135E-20
    274.10336   4.33066E-20
    274.21384   4.37396E-20
    274.32431   4.40105E-20
    274.43475   4.41801E-20
    274.54517   4.42736E-20
    274.65558   4.42827E-20
    274.76596   4.42041E-20
    274.87631   4.41262E-20
    274.98666   4.40841E-20
    275.09698   4.39977E-20
    275.20728   4.38988E-20
    275.31757   4.37743E-20
    275.42780   4.35360E-20
    275.53806   4.32581E-20
    275.64825   4.30008E-20
    275.75845   4.28618E-20
    275.86862   4.28228E-20
    275.97879   4.29191E-20
    276.08893   4.31188E-20
    276.19904   4.34386E-20
    276.30914   4.38647E-20
    276.41922   4.43310E-20
    276.52927   4.48355E-20
    276.63931   4.52883E-20
    276.74933   4.57252E-20
    276.85931   4.60995E-20
    276.96930   4.63429E-20
    277.07925   4.65047E-20
    277.18921   4.65940E-20
    277.29913   4.66426E-20
    277.40903   4.66615E-20
    277.51892   4.66613E-20
    277.62878   4.67243E-20
    277.73865   4.69306E-20
    277.84845   4.73612E-20
    277.95828   4.79255E-20
    278.06805   4.85244E-20
    278.17783   4.90307E-20
    278.28760   4.94207E-20
    278.39734   4.96813E-20
    278.50705   4.98549E-20
    278.61676   5.00906E-20
    278.72644   5.04583E-20
    278.83609   5.10719E-20
    278.94574   5.19431E-20
    279.05539   5.30118E-20
    279.16498   5.41804E-20
    279.27460   5.53725E-20
    279.38416   5.63420E-20
    279.49371   5.67962E-20
    279.60327   5.67906E-20
    279.71280   5.65774E-20
    279.82230   5.63024E-20
    279.93179   5.59204E-20
    280.04129   5.54472E-20
    280.15073   5.49117E-20
    280.26016   5.44773E-20
    280.36960   5.44140E-20
    280.47900   5.47499E-20
    280.58841   5.54303E-20
    280.69778   5.60576E-20
    280.80713   5.65311E-20
    280.91647   5.68061E-20
    281.02582   5.70949E-20
    281.13513   5.75388E-20
    281.24442   5.81646E-20
    281.35370   5.87564E-20
    281.46298   5.92529E-20
    281.57220   5.94431E-20
    281.68146   5.91740E-20
    281.79068   5.83534E-20
    281.89987   5.72631E-20
    282.00906   5.62427E-20
    282.11823   5.54415E-20
    282.22739   5.48917E-20
    282.33652   5.45488E-20
    282.44565   5.44008E-20
    282.55475   5.44756E-20
    282.66385   5.47546E-20
    282.77295   5.51973E-20
    282.88202   5.58700E-20
    282.99106   5.68655E-20
    283.10010   5.81405E-20
    283.20911   5.93604E-20
    283.31812   6.02347E-20
    283.42712   6.08559E-20
    283.53610   6.14466E-20
    283.64508   6.23523E-20
    283.75403   6.35680E-20
    283.86295   6.48137E-20
    283.97189   6.57385E-20
    284.08078   6.62143E-20
    284.18970   6.63774E-20
    284.29858   6.64418E-20
    284.40744   6.65423E-20
    284.51630   6.67959E-20
    284.62512   6.72858E-20
    284.73398   6.79211E-20
    284.84277   6.86222E-20
    284.95160   6.92048E-20
    285.06036   6.96889E-20
    285.16916   7.01011E-20
    285.27792   7.05328E-20
    285.38666   7.10837E-20
    285.49539   7.16963E-20
    285.60413   7.23258E-20
    285.71283   7.29332E-20
    285.82153   7.35317E-20
    285.93021   7.39487E-20
    286.03888   7.42000E-20
    286.14755   7.42512E-20
    286.25620   7.42154E-20
    286.36484   7.41054E-20
    286.47345   7.39108E-20
    286.58206   7.35003E-20
    286.69067   7.29185E-20
    286.79926   7.22671E-20
    286.90784   7.17065E-20
    287.01639   7.12862E-20
    287.12494   7.10228E-20
    287.23349   7.09167E-20
    287.34201   7.10869E-20
    287.45053   7.14735E-20
    287.55902   7.19842E-20
    287.66751   7.23625E-20
    287.77600   7.23903E-20
    287.88446   7.20634E-20
    287.99292   7.17679E-20
    288.10138   7.17694E-20
    288.20981   7.20701E-20
    288.31824   7.26274E-20
    288.42667   7.32987E-20
    288.53506   7.39511E-20
    288.64343   7.45797E-20
    288.75183   7.52392E-20
    288.86020   7.59208E-20
    288.96857   7.65655E-20
    289.07690   7.70635E-20
    289.18524   7.74838E-20
    289.29358   7.79922E-20
    289.40189   7.86617E-20
    289.51019   7.95496E-20
    289.61850   8.06510E-20
    289.72678   8.17850E-20
    289.83505   8.27825E-20
    289.94333   8.35234E-20
    290.05157   8.39207E-20
    290.15982   8.40279E-20
    290.26807   8.39329E-20
    290.37628   8.36948E-20
    290.48453   8.34625E-20
    290.59271   8.34114E-20
    290.70093   8.36932E-20
    290.80911   8.43797E-20
    290.91730   8.56090E-20
    291.02545   8.70989E-20
    291.13361   8.87493E-20
    291.24176   9.02242E-20
    291.34991   9.14216E-20
    291.45804   9.23176E-20
    291.56616   9.29713E-20
    291.67429   9.32896E-20
    291.78238   9.34936E-20
    291.89047   9.38539E-20
    291.99857   9.43607E-20
    292.10666   9.52156E-20
    292.21472   9.62352E-20
    292.32278   9.75151E-20
    292.43082   9.84581E-20
    292.53888   9.87826E-20
    292.64691   9.81986E-20
    292.75494   9.69268E-20
    292.86295   9.54234E-20
    292.97095   9.39939E-20
    293.07895   9.27418E-20
    293.18695   9.17187E-20
    293.29495   9.09142E-20
    293.40292   9.03043E-20
    293.51089   8.98081E-20
    293.61884   8.94482E-20
    293.72681   8.92298E-20
    293.83475   8.92376E-20
    293.94269   8.95152E-20
    294.05060   9.00315E-20
    294.15854   9.09701E-20
    294.26645   9.26563E-20
    294.37436   9.49615E-20
    294.48224   9.73332E-20
    294.59015   9.92962E-20
    294.69803   1.00803E-19
    294.80591   1.01858E-19
    294.91376   1.02211E-19
    295.02164   1.01576E-19
    295.12949   1.00053E-19
    295.23734   9.80642E-20
    295.34515   9.60663E-20
    295.45300   9.44656E-20
    295.56082   9.34309E-20
    295.66864   9.30271E-20
    295.77646   9.32829E-20
    295.88425   9.42780E-20
    295.99207   9.60258E-20
    296.09985   9.84349E-20
    296.20764   1.01175E-19
    296.31540   1.03882E-19
    296.42319   1.06441E-19
    296.53094   1.08902E-19
    296.63870   1.11301E-19
    296.74646   1.13425E-19
    296.85422   1.15500E-19
    296.96194   1.17888E-19
    297.06967   1.20660E-19
    297.17740   1.23435E-19
    297.28513   1.25821E-19
    297.39285   1.27469E-19
    297.50055   1.28095E-19
    297.60825   1.27379E-19
    297.71594   1.25701E-19
    297.82364   1.23148E-19
    297.93130   1.20459E-19
    298.03900   1.18084E-19
    298.14667   1.16456E-19
    298.25433   1.15339E-19
    298.36200   1.14720E-19
    298.46967   1.14488E-19
    298.57730   1.14530E-19
    298.68497   1.14523E-19
    298.79260   1.14736E-19
    298.90024   1.15395E-19
    299.00784   1.16498E-19
    299.11548   1.17761E-19
    299.22308   1.18885E-19
    299.33072   1.19809E-19
    299.43832   1.20707E-19
    299.54593   1.21506E-19
    299.65350   1.22204E-19
    299.76111   1.22423E-19
    299.86868   1.21782E-19
    299.97629   1.20355E-19
    300.08386   1.18594E-19
    300.19144   1.16985E-19
    300.29898   1.16007E-19
    300.40656   1.15761E-19
    300.51410   1.16163E-19
    300.62167   1.16891E-19
    300.72922   1.17460E-19
    300.83676   1.17642E-19
    300.94431   1.17397E-19
    301.05182   1.16969E-19
    301.15936   1.16933E-19
    301.26688   1.17694E-19
    301.37442   1.19300E-19
    301.48193   1.21582E-19
    301.58945   1.24228E-19
    301.69693   1.26807E-19
    301.80444   1.29370E-19
    301.91196   1.32022E-19
    302.01944   1.34504E-19
    302.12692   1.36379E-19
    302.23441   1.37603E-19
    302.34189   1.38171E-19
    302.44937   1.38297E-19
    302.55685   1.38463E-19
    302.66434   1.39210E-19
    302.77179   1.40897E-19
    302.87927   1.43448E-19
    302.98672   1.46264E-19
    303.09418   1.48474E-19
    303.20163   1.49780E-19
    303.30908   1.50187E-19
    303.41653   1.49958E-19
    303.52396   1.49357E-19
    303.63141   1.48596E-19
    303.73883   1.47629E-19
    303.84625   1.46810E-19
    303.95370   1.46331E-19
    304.06113   1.46015E-19
    304.16855   1.46021E-19
    304.27594   1.46735E-19
    304.38336   1.47819E-19
    304.49078   1.48704E-19
    304.59818   1.49451E-19
    304.70560   1.50389E-19
    304.81299   1.51835E-19
    304.92038   1.53123E-19
    305.02777   1.53550E-19
    305.13516   1.53041E-19
    305.24255   1.52104E-19
    305.34995   1.50992E-19
    305.45734   1.49698E-19
    305.56473   1.48445E-19
    305.67209   1.47363E-19
    305.77948   1.46514E-19
    305.88684   1.46062E-19
    305.99420   1.46086E-19
    306.10156   1.46569E-19
    306.20895   1.47573E-19
    306.31631   1.49119E-19
    306.42365   1.50926E-19
    306.53101   1.52688E-19
    306.63837   1.54337E-19
    306.74573   1.56133E-19
    306.85306   1.58289E-19
    306.96042   1.60708E-19
    307.06775   1.62392E-19
    307.17508   1.63044E-19
    307.28244   1.63218E-19
    307.38977   1.63070E-19
    307.49710   1.62329E-19
    307.60443   1.60886E-19
    307.71176   1.59053E-19
    307.81909   1.57450E-19
    307.92642   1.56233E-19
    308.03372   1.55347E-19
    308.14105   1.54670E-19
    308.24838   1.54220E-19
    308.35568   1.54566E-19
    308.46301   1.56335E-19
    308.57031   1.59254E-19
    308.67761   1.63239E-19
    308.78494   1.68246E-19
    308.89224   1.73528E-19
    308.99954   1.77648E-19
    309.10684   1.80266E-19
    309.21414   1.81632E-19
    309.32144   1.82554E-19
    309.42874   1.83113E-19
    309.53604   1.82864E-19
    309.64334   1.81386E-19
    309.75061   1.79103E-19
    309.85791   1.76463E-19
    309.96521   1.74259E-19
    310.07248   1.72885E-19
    310.17978   1.72477E-19
    310.28705   1.72757E-19
    310.39435   1.73669E-19
    310.50162   1.75381E-19
    310.60889   1.77749E-19
    310.71619   1.80216E-19
    310.82346   1.82065E-19
    310.93073   1.82874E-19
    311.03799   1.83437E-19
    311.14526   1.84405E-19
    311.25253   1.86107E-19
    311.35980   1.88189E-19
    311.46707   1.89689E-19
    311.57434   1.89917E-19
    311.68161   1.88939E-19
    311.78888   1.87468E-19
    311.89615   1.86825E-19
    312.00339   1.88279E-19
    312.11066   1.91191E-19
    312.21793   1.94913E-19
    312.32520   1.98956E-19
    312.43243   2.01725E-19
    312.53970   2.02400E-19
    312.64694   2.01865E-19
    312.75421   2.00846E-19
    312.86145   1.99504E-19
    312.90726   2.00112E-19
    313.02383   1.98430E-19
    313.14035   1.96444E-19
    313.25687   1.94303E-19
    313.37338   1.92118E-19
    313.48987   1.90481E-19
    313.60632   1.89908E-19
    313.72275   1.90001E-19
    313.83917   1.90545E-19
    313.95557   1.91513E-19
    314.07196   1.92797E-19
    314.18829   1.94841E-19
    314.30466   1.97668E-19
    314.42096   2.01299E-19
    314.53726   2.05411E-19
    314.65353   2.09604E-19
    314.76981   2.13398E-19
    314.88605   2.16077E-19
    315.00226   2.17405E-19
    315.11847   2.16982E-19
    315.23465   2.15064E-19
    315.35080   2.13017E-19
    315.46695   2.11091E-19
    315.58307   2.09849E-19
    315.69919   2.08650E-19
    315.81525   2.07502E-19
    315.93134   2.06609E-19
    316.04736   2.05842E-19
    316.16339   2.05292E-19
    316.27942   2.05300E-19
    316.39539   2.06004E-19
    316.51135   2.07627E-19
    316.62732   2.10120E-19
    316.74326   2.12826E-19
    316.85916   2.15767E-19
    316.97507   2.18915E-19
    317.09094   2.22357E-19
    317.20679   2.26382E-19
    317.32263   2.30795E-19
    317.43845   2.35442E-19
    317.55423   2.39275E-19
    317.67001   2.41410E-19
    317.78580   2.41909E-19
    317.90152   2.41507E-19
    318.01727   2.40981E-19
    318.13297   2.40356E-19
    318.24866   2.39326E-19
    318.36432   2.37406E-19
    318.47998   2.34866E-19
    318.59561   2.32361E-19
    318.71124   2.30175E-19
    318.82684   2.28661E-19
    318.94241   2.27734E-19
    319.05798   2.27426E-19
    319.17352   2.27251E-19
    319.28903   2.27606E-19
    319.40454   2.28681E-19
    319.52005   2.31531E-19
    319.63550   2.35862E-19
    319.75098   2.40794E-19
    319.86639   2.45830E-19
    319.98181   2.50117E-19
    320.09723   2.53652E-19
    320.21262   2.56291E-19
    320.32797   2.57368E-19
    320.44333   2.56325E-19
    320.55865   2.53257E-19
    320.67395   2.49020E-19
    320.78925   2.44971E-19
    320.90454   2.42771E-19
    321.01981   2.41575E-19
    321.13504   2.40971E-19
    321.25027   2.39894E-19
    321.36548   2.39185E-19
    321.48065   2.39275E-19
    321.59583   2.40510E-19
    321.71100   2.42714E-19
    321.82614   2.45743E-19
    321.94125   2.48947E-19
    322.05637   2.51835E-19
    322.17145   2.54556E-19
    322.28653   2.56982E-19
    322.40158   2.59632E-19
    322.51660   2.62164E-19
    322.63162   2.64273E-19
    322.74664   2.65642E-19
    322.86163   2.66102E-19
    322.97659   2.65923E-19
    323.09155   2.65657E-19
    323.20648   2.65018E-19
    323.32141   2.64135E-19
    323.43631   2.63265E-19
    323.55121   2.62574E-19
    323.66608   2.62051E-19
    323.78091   2.61392E-19
    323.89575   2.59823E-19
    324.01059   2.58018E-19
    324.12540   2.57639E-19
    324.24017   2.57600E-19
    324.35495   2.57931E-19
    324.46970   2.59630E-19
    324.58444   2.62418E-19
    324.69916   2.65687E-19
    324.81387   2.70206E-19
    324.92856   2.75708E-19
    325.04324   2.81370E-19
    325.15790   2.85996E-19
    325.27255   2.89302E-19
    325.38718   2.90659E-19
    325.50180   2.89765E-19
    325.61639   2.87640E-19
    325.73096   2.85611E-19
    325.84552   2.84665E-19
    325.96008   2.84604E-19
    326.07462   2.84946E-19
    326.18912   2.86560E-19
    326.30362   2.89627E-19
    326.41812   2.92453E-19
    326.53259   2.92840E-19
    326.64703   2.90820E-19
    326.76147   2.88320E-19
    326.87592   2.85821E-19
    326.99033   2.83803E-19
    327.10471   2.82819E-19
    327.21909   2.83505E-19
    327.33347   2.86223E-19
    327.44778   2.90401E-19
    327.56213   2.94275E-19
    327.67645   2.97091E-19
    327.79074   2.99513E-19
    327.90503   3.00521E-19
    328.01932   2.99190E-19
    328.13358   2.96623E-19
    328.24780   2.94148E-19
    328.36203   2.91988E-19
    328.47623   2.90057E-19
    328.59042   2.88544E-19
    328.70462   2.88025E-19
    328.81879   2.89463E-19
    328.93295   2.92931E-19
    329.04709   2.97300E-19
    329.16119   3.01302E-19
    329.27530   3.05133E-19
    329.38940   3.09330E-19
    329.50348   3.13835E-19
    329.61755   3.17201E-19
    329.73160   3.19035E-19
    329.84561   3.19886E-19
    329.95966   3.18466E-19
    330.07364   3.14414E-19
    330.18765   3.09436E-19
    330.30161   3.04485E-19
    330.41559   3.01110E-19
    330.52954   2.99919E-19
    330.64346   3.00443E-19
    330.75739   3.01520E-19
    330.87128   3.03284E-19
    330.98517   3.05497E-19
    331.09906   3.07299E-19
    331.21292   3.08651E-19
    331.32678   3.09521E-19
    331.44061   3.09515E-19
    331.55441   3.09485E-19
    331.66824   3.08962E-19
    331.78201   3.08059E-19
    331.89581   3.07423E-19
    332.00958   3.08253E-19
    332.12332   3.11151E-19
    332.23706   3.17500E-19
    332.35077   3.27398E-19
    332.46448   3.38580E-19
    332.57819   3.49915E-19
    332.69186   3.61169E-19
    332.80554   3.70705E-19
    332.91919   3.77305E-19
    333.03284   3.78756E-19
    333.14645   3.75371E-19
    333.26007   3.67980E-19
    333.37369   3.57886E-19
    333.48727   3.48079E-19
    333.60086   3.40712E-19
    333.71442   3.34804E-19
    333.82794   3.28630E-19
    333.94150   3.21182E-19
    334.05502   3.14094E-19
    334.16852   3.09632E-19
    334.28201   3.08915E-19
    334.39551   3.10870E-19
    334.50897   3.14788E-19
    334.62241   3.21536E-19
    334.73587   3.32061E-19
    334.84927   3.45909E-19
    334.96271   3.57431E-19
    335.07611   3.60435E-19
    335.18948   3.55018E-19
    335.30289   3.46861E-19
    335.41623   3.40542E-19
    335.52960   3.35996E-19
    335.64291   3.32989E-19
    335.75626   3.32739E-19
    335.86957   3.34793E-19
    335.98288   3.39165E-19
    336.09616   3.44304E-19
    336.20944   3.49083E-19
    336.32269   3.52213E-19
    336.43594   3.53884E-19
    336.54919   3.54305E-19
    336.66241   3.54961E-19
    336.77560   3.55969E-19
    336.88882   3.54819E-19
    337.00201   3.50937E-19
    337.11517   3.46004E-19
    337.22833   3.41448E-19
    337.34149   3.36017E-19
    337.45462   3.31619E-19
    337.56775   3.28690E-19
    337.68088   3.26547E-19
    337.79398   3.25384E-19
    337.90704   3.27528E-19
    338.02014   3.34345E-19
    338.13318   3.45361E-19
    338.24625   3.59847E-19
    338.35928   3.76128E-19
    338.47232   3.90454E-19
    338.58533   3.98832E-19
    338.69833   4.02783E-19
    338.81131   4.05069E-19
    338.92432   4.06585E-19
    339.03726   4.06413E-19
    339.15024   4.03887E-19
    339.26318   3.98790E-19
    339.37610   3.92083E-19
    339.48901   3.85020E-19
    339.60193   3.79468E-19
    339.71481   3.76468E-19
    339.82773   3.76073E-19
    339.94058   3.76949E-19
    340.05344   3.78364E-19
    340.16629   3.79776E-19
    340.27914   3.81476E-19
    340.39197   3.83382E-19
    340.50479   3.86059E-19
    340.61758   3.89097E-19
    340.73038   3.93870E-19
    340.84317   4.01036E-19
    340.95593   4.09452E-19
    341.06870   4.16719E-19
    341.18143   4.21373E-19
    341.29416   4.22749E-19
    341.40689   4.21509E-19
    341.51962   4.18438E-19
    341.63232   4.15032E-19
    341.74500   4.11457E-19
    341.85767   4.04972E-19
    341.97034   3.95616E-19
    342.08301   3.85975E-19
    342.19565   3.77375E-19
    342.30829   3.70668E-19
    342.42090   3.65343E-19
    342.53351   3.61588E-19
    342.64612   3.57456E-19
    342.75873   3.52969E-19
    342.87131   3.50027E-19
    342.98386   3.49157E-19
    343.09641   3.50339E-19
    343.20895   3.56153E-19
    343.32150   3.65672E-19
    343.43402   3.75062E-19
    343.54654   3.81766E-19
    343.65906   3.85903E-19
    343.77155   3.88913E-19
    343.88403   3.90058E-19
    343.99649   3.89522E-19
    344.10895   3.88035E-19
    344.22141   3.86386E-19
    344.33386   3.85354E-19
    344.44629   3.86765E-19
    344.55869   3.90824E-19
    344.67111   3.95285E-19
    344.78351   3.98420E-19
    344.89590   4.00212E-19
    345.00827   4.01631E-19
    345.12064   4.02982E-19
    345.23300   4.04370E-19
    345.34534   4.03411E-19
    345.45767   4.00299E-19
    345.57001   3.98651E-19
    345.68231   4.01162E-19
    345.79462   4.07364E-19
    345.90692   4.16102E-19
    346.01920   4.25065E-19
    346.13147   4.31769E-19
    346.24374   4.35432E-19
    346.35599   4.37431E-19
    346.46823   4.40468E-19
    346.58047   4.44036E-19
    346.69269   4.46175E-19
    346.80490   4.44784E-19
    346.91711   4.40168E-19
    347.02930   4.33813E-19
    347.14148   4.27528E-19
    347.25366   4.23818E-19
    347.36581   4.21065E-19
    347.47797   4.19448E-19
    347.59012   4.19336E-19
    347.70224   4.22071E-19
    347.81436   4.28909E-19
    347.92648   4.41785E-19
    348.03860   4.64133E-19
    348.15070   4.91994E-19
    348.26279   5.12616E-19
    348.37485   5.24056E-19
    348.48691   5.22956E-19
    348.59897   5.11927E-19
    348.71103   4.98488E-19
    348.82306   4.85350E-19
    348.93509   4.71511E-19
    349.04709   4.54491E-19
    349.15912   4.35051E-19
    349.27112   4.17498E-19
    349.38309   4.05251E-19
    349.49509   3.98895E-19
    349.60706   3.95692E-19
    349.71899   3.93718E-19
    349.83096   3.94263E-19
    349.94290   3.96777E-19
    350.05484   4.00301E-19
    350.16675   4.04339E-19
    350.27869   4.10163E-19
    350.39056   4.19200E-19
    350.50247   4.28406E-19
    350.61435   4.34556E-19
    350.72623   4.39670E-19
    350.83810   4.45107E-19
    350.94995   4.48838E-19
    351.06183   4.53082E-19
    351.17365   4.55791E-19
    351.28549   4.53958E-19
    351.39731   4.48183E-19
    351.50912   4.38695E-19
    351.62094   4.27490E-19
    351.73273   4.18866E-19
    351.84451   4.16743E-19
    351.95630   4.22144E-19
    352.06805   4.31783E-19
    352.17981   4.41236E-19
    352.29156   4.43890E-19
    352.40332   4.41047E-19
    352.51505   4.34269E-19
    352.62677   4.22992E-19
    352.73849   4.09550E-19
    352.85019   3.97781E-19
    352.96191   3.91553E-19
    353.07358   3.91140E-19
    353.18527   3.94368E-19
    353.29694   4.00705E-19
    353.40860   4.10687E-19
    353.52026   4.22190E-19
    353.63190   4.35348E-19
    353.74356   4.51403E-19
    353.85516   4.68363E-19
    353.96680   4.83887E-19
    354.07840   5.01660E-19
    354.19000   5.19659E-19
    354.30161   5.33278E-19
    354.41318   5.39239E-19
    354.52478   5.38985E-19
    354.63635   5.34837E-19
    354.74789   5.28677E-19
    354.85947   5.20040E-19
    354.97101   5.08019E-19
    355.08255   4.94938E-19
    355.19406   4.82294E-19
    355.30557   4.71025E-19
    355.41708   4.61669E-19
    355.52859   4.54418E-19
    355.64011   4.47070E-19
    355.75159   4.41209E-19
    355.86307   4.38695E-19
    355.97452   4.40705E-19
    356.08600   4.46800E-19
    356.19745   4.54210E-19
    356.30890   4.61062E-19
    356.42032   4.68991E-19
    356.53177   4.79771E-19
    356.64319   4.93699E-19
    356.75458   5.08408E-19
    356.86600   5.22683E-19
    356.97739   5.36634E-19
    357.08878   5.47689E-19
    357.20016   5.52246E-19
    357.31152   5.49869E-19
    357.42291   5.43793E-19
    357.53427   5.37425E-19
    357.64560   5.27273E-19
    357.75696   5.16584E-19
    357.86829   5.10510E-19
    357.97961   5.05539E-19
    358.09091   4.98504E-19
    358.20224   4.92366E-19
    358.31354   4.86673E-19
    358.42484   4.80131E-19
    358.53613   4.73560E-19
    358.64740   4.67398E-19
    358.75867   4.61477E-19
    358.86993   4.54348E-19
    358.98120   4.47166E-19
    359.09244   4.44568E-19
    359.20367   4.46513E-19
    359.31491   4.48431E-19
    359.42615   4.49564E-19
    359.53735   4.49639E-19
    359.64856   4.49598E-19
    359.75977   4.49643E-19
    359.87097   4.48096E-19
    359.98215   4.48112E-19
    360.09332   4.52578E-19
    360.20450   4.61651E-19
    360.31567   4.71792E-19
    360.42682   4.81492E-19
    360.53799   4.91565E-19
    360.64914   5.03255E-19
    360.76025   5.12466E-19
    360.87140   5.17629E-19
    360.98251   5.20294E-19
    361.09363   5.20224E-19
    361.20474   5.17881E-19
    361.31583   5.12260E-19
    361.42691   5.05263E-19
    361.53799   4.98523E-19
    361.64908   4.93014E-19
    361.76016   4.89937E-19
    361.87122   4.88700E-19
    361.98227   4.89926E-19
    362.09332   4.92892E-19
    362.20435   4.96847E-19
    362.31540   4.99814E-19
    362.42642   5.01542E-19
    362.53745   5.03233E-19
    362.64844   5.02711E-19
    362.75946   5.01632E-19
    362.87045   5.03261E-19
    362.98145   5.04015E-19
    363.09244   5.01618E-19
    363.20340   4.97792E-19
    363.31436   4.95629E-19
    363.42532   4.92838E-19
    363.53629   4.86662E-19
    363.64725   4.79249E-19
    363.75818   4.73877E-19
    363.86911   4.73391E-19
    363.98004   4.80051E-19
    364.09097   4.90184E-19
    364.20187   5.00632E-19
    364.31277   5.10388E-19
    364.42368   5.19358E-19
    364.53458   5.28963E-19
    364.64545   5.40933E-19
    364.75635   5.50261E-19
    364.86722   5.57091E-19
    364.97809   5.66429E-19
    365.08893   5.78580E-19
    365.19980   5.89589E-19
    365.31064   5.95011E-19
    365.42148   5.92157E-19
    365.53232   5.86987E-19
    365.64313   5.81521E-19
    365.75394   5.70203E-19
    365.86478   5.57577E-19
    365.97556   5.44510E-19
    366.08636   5.28984E-19
    366.19714   5.12491E-19
    366.30795   4.99036E-19
    366.41873   4.90845E-19
    366.52948   4.86732E-19
    366.64026   4.86750E-19
    366.75104   4.90607E-19
    366.86179   4.98147E-19
    366.97253   5.08955E-19
    367.08325   5.19477E-19
    367.19400   5.30958E-19
    367.30472   5.42032E-19
    367.41544   5.46713E-19
    367.52615   5.45255E-19
    367.63687   5.42019E-19
    367.74756   5.39044E-19
    367.85825   5.38592E-19
    367.96893   5.38105E-19
    368.07962   5.34791E-19
    368.19031   5.30103E-19
    368.30096   5.24978E-19
    368.41162   5.22178E-19
    368.52228   5.20118E-19
    368.63293   5.14823E-19
    368.74356   5.09255E-19
    368.85422   5.10988E-19
    368.96484   5.15269E-19
    369.07547   5.20428E-19
    369.18607   5.26412E-19
    369.29669   5.29606E-19
    369.40729   5.27440E-19
    369.51788   5.24933E-19
    369.62848   5.22528E-19
    369.73907   5.20117E-19
    369.84964   5.19694E-19
    369.96021   5.25586E-19
    370.07080   5.29747E-19
    370.18134   5.28153E-19
    370.29190   5.23694E-19
    370.40244   5.17264E-19
    370.51300   5.09065E-19
    370.62354   4.99764E-19
    370.73407   4.90776E-19
    370.84457   4.85845E-19
    370.95511   4.90385E-19
    371.06561   5.01323E-19
    371.17612   5.11060E-19
    371.28662   5.17489E-19
    371.39709   5.28157E-19
    371.50760   5.43191E-19
    371.61807   5.59675E-19
    371.72855   5.74577E-19
    371.83902   5.85348E-19
    371.94949   5.94211E-19
    372.05994   5.96674E-19
    372.17038   5.93877E-19
    372.28082   5.93603E-19
    372.39127   5.96239E-19
    372.50171   5.95346E-19
    372.61212   5.89661E-19
    372.72256   5.78886E-19
    372.83298   5.65974E-19
    372.94339   5.54382E-19
    373.05377   5.45350E-19
    373.16418   5.38899E-19
    373.27457   5.33041E-19
    373.38495   5.28287E-19
    373.49533   5.23398E-19
    373.60571   5.22983E-19
    373.71609   5.27655E-19
    373.82645   5.35747E-19
    373.93680   5.40436E-19
    374.04715   5.37033E-19
    374.15750   5.31302E-19
    374.26782   5.23164E-19
    374.37817   5.11100E-19
    374.48849   5.01890E-19
    374.59882   4.99441E-19
    374.70914   5.01038E-19
    374.81943   5.05853E-19
    374.92975   5.14841E-19
    375.04004   5.28737E-19
    375.15033   5.47672E-19
    375.26062   5.62280E-19
    375.37091   5.72626E-19
    375.48117   5.78751E-19
    375.59143   5.82720E-19
    375.70172   5.86261E-19
    375.81195   5.88760E-19
    375.92221   5.92704E-19
    376.03247   6.11087E-19
    376.14270   6.32676E-19
    376.25293   6.45709E-19
    376.36316   6.47205E-19
    376.47339   6.38576E-19
    376.58362   6.26695E-19
    376.69382   6.15128E-19
    376.80402   6.00311E-19
    376.91422   5.81314E-19
    377.02441   5.64996E-19
    377.13461   5.52552E-19
    377.24481   5.38570E-19
    377.35498   5.24157E-19
    377.46515   5.13340E-19
    377.57532   5.10755E-19
    377.68549   5.10725E-19
    377.79562   5.12017E-19
    377.90579   5.17732E-19
    378.01593   5.16791E-19
    378.12607   5.10024E-19
    378.23621   5.05963E-19
    378.34634   5.07326E-19
    378.45645   5.12231E-19
    378.56656   5.15548E-19
    378.67670   5.17155E-19
    378.78680   5.22432E-19
    378.89688   5.27337E-19
    379.00699   5.34312E-19
    379.11707   5.43165E-19
    379.22717   5.55239E-19
    379.33725   5.71198E-19
    379.44730   5.91169E-19
    379.55737   6.10591E-19
    379.66745   6.22996E-19
    379.77750   6.27810E-19
    379.88754   6.26546E-19
    379.99759   6.19372E-19
    380.10764   6.09490E-19
    380.21768   6.04334E-19
    380.32770   6.02467E-19
    380.43771   6.01089E-19
    380.54773   6.02183E-19
    380.65775   6.01613E-19
    380.76776   5.96828E-19
    380.87778   5.87642E-19
    380.98776   5.79839E-19
    381.09775   5.75439E-19
    381.20773   5.71942E-19
    381.31772   5.68811E-19
    381.42770   5.67178E-19
    381.53766   5.67348E-19
    381.64764   5.71312E-19
    381.75760   5.72295E-19
    381.86755   5.67803E-19
    381.97751   5.65271E-19
    382.08743   5.68061E-19
    382.19739   5.65829E-19
    382.30731   5.51545E-19
    382.41724   5.34320E-19
    382.52716   5.25738E-19
    382.63708   5.26852E-19
    382.74698   5.34319E-19
    382.85690   5.36463E-19
    382.96680   5.34557E-19
    383.07669   5.37158E-19
    383.18658   5.45832E-19
    383.29645   5.52912E-19
    383.40634   5.52852E-19
    383.51620   5.51695E-19
    383.62607   5.56891E-19
    383.73593   5.70491E-19
    383.84579   5.80973E-19
    383.95566   5.87393E-19
    384.06549   5.82661E-19
    384.17535   5.75347E-19
    384.28519   5.79138E-19
    384.39502   5.91077E-19
    384.50485   6.01618E-19
    384.61465   6.06402E-19
    384.72449   6.14698E-19
    384.83429   6.17632E-19
    384.94409   6.04732E-19
    385.05389   5.90707E-19
    385.16370   5.78997E-19
    385.27347   5.75552E-19
    385.38327   5.78024E-19
    385.49304   5.79072E-19
    385.60281   5.91234E-19
    385.71259   6.03096E-19
    385.82233   5.93288E-19
    385.93210   5.76728E-19
    386.04184   5.60263E-19
    386.15158   5.49594E-19
    386.26132   5.39513E-19
    386.37106   5.32012E-19
    386.48080   5.29557E-19
    386.59052   5.33461E-19
    386.70026   5.42921E-19
    386.80997   5.55420E-19
    386.91968   5.67067E-19
    387.02939   5.73623E-19
    387.13907   5.79905E-19
    387.24878   5.84178E-19
    387.35846   5.89138E-19
    387.46814   5.92618E-19
    387.57782   5.92278E-19
    387.68750   5.93134E-19
    387.79718   5.97133E-19
    387.90683   5.97863E-19
    388.01651   5.91857E-19
    388.12616   5.84309E-19
    388.23581   5.78925E-19
    388.34543   5.73141E-19
    388.45508   5.71014E-19
    388.56470   5.71350E-19
    388.67435   5.75548E-19
    388.78397   5.82499E-19
    388.89359   5.92516E-19
    389.00317   6.06780E-19
    389.11279   6.17078E-19
    389.22238   6.18739E-19
    389.33197   6.12315E-19
    389.44156   6.06265E-19
    389.55115   5.94862E-19
    389.66074   5.84898E-19
    389.77032   5.85143E-19
    389.87988   5.90999E-19
    389.98944   5.96996E-19
    390.09900   5.97091E-19
    390.20856   6.01421E-19
    390.31812   6.05886E-19
    390.42764   5.99777E-19
    390.53717   5.91186E-19
    390.64673   5.85325E-19
    390.75626   5.81615E-19
    390.86575   5.79556E-19
    390.97528   5.83296E-19
    391.08478   5.88735E-19
    391.19431   5.91520E-19
    391.30380   5.91640E-19
    391.41330   5.94255E-19
    391.52280   6.16466E-19
    391.63226   6.42483E-19
    391.74176   6.61357E-19
    391.85123   6.61989E-19
    391.96069   6.40221E-19
    392.07016   6.16985E-19
    392.17963   6.04262E-19
    392.28906   6.02504E-19
    392.39853   6.03042E-19
    392.50797   6.00644E-19
    392.61740   6.01266E-19
    392.72684   5.98584E-19
    392.83627   5.89041E-19
    392.94568   5.68862E-19
    393.05511   5.48863E-19
    393.16452   5.33887E-19
    393.27393   5.29010E-19
    393.38333   5.31053E-19
    393.49271   5.42595E-19
    393.60211   5.50688E-19
    393.71149   5.54045E-19
    393.82086   5.52393E-19
    393.93024   5.50895E-19
    394.03961   5.49056E-19
    394.14899   5.40873E-19
    394.25833   5.34192E-19
    394.36768   5.34073E-19
    394.47705   5.33784E-19
    394.58640   5.33943E-19
    394.69571   5.37558E-19
    394.80505   5.50323E-19
    394.91440   5.64870E-19
    395.02371   5.74222E-19
    395.13303   5.87061E-19
    395.24234   6.03909E-19
    395.35162   6.21699E-19
    395.46094   6.31805E-19
    395.57022   6.26343E-19
    395.67953   6.27424E-19
    395.78882   6.35317E-19
    395.89807   6.36033E-19
    396.00735   6.19000E-19
    396.11664   5.99244E-19
    396.22589   5.83738E-19
    396.33514   5.72493E-19
    396.44440   5.58319E-19
    396.55365   5.48673E-19
    396.66290   5.41961E-19
    396.77213   5.40316E-19
    396.88135   5.42729E-19
    396.99057   5.43945E-19
    397.09979   5.45108E-19
    397.20901   5.40382E-19
    397.31824   5.36968E-19
    397.42743   5.40094E-19
    397.53662   5.55572E-19
    397.64581   5.83383E-19
    397.75500   6.04715E-19
    397.86420   6.28326E-19
    397.97336   6.44033E-19
    398.08252   6.50062E-19
    398.19171   6.60405E-19
    398.30087   6.68441E-19
    398.41000   6.77882E-19
    398.51917   6.68272E-19
    398.62830   6.46615E-19
    398.73746   6.16407E-19
    398.84659   5.83868E-19
    398.95572   5.58828E-19
    399.06482   5.48523E-19
    399.17395   5.45185E-19
    399.28305   5.47890E-19
    399.39215   5.63172E-19
    399.50125   5.81154E-19
    399.61035   5.97722E-19
    399.71945   6.14563E-19
    399.82852   6.37934E-19
    399.93759   6.59269E-19
    400.04666   6.73567E-19
    400.15573   6.69954E-19
    400.26480   6.62336E-19
    400.37387   6.55895E-19
    400.48291   6.59169E-19
    400.59195   6.49535E-19
    400.70099   6.42656E-19
    400.81003   6.45841E-19
    400.91904   6.45502E-19
    401.02808   6.43947E-19
    401.13708   6.41863E-19
    401.24609   6.29761E-19
    401.35510   6.21282E-19
    401.46411   6.14274E-19
    401.57309   6.07806E-19
    401.68207   6.00827E-19
    401.79108   5.97519E-19
    401.90005   5.84356E-19
    402.00903   5.69096E-19
    402.11798   5.55998E-19
    402.22693   5.46443E-19
    402.33591   5.44307E-19
    402.44485   5.35840E-19
    402.55380   5.28279E-19
    402.66272   5.23175E-19
    402.77167   5.26875E-19
    402.88058   5.31369E-19
    402.98950   5.26705E-19
    403.09842   5.18704E-19
    403.20734   5.19581E-19
    403.31622   5.22908E-19
    403.42511   5.33474E-19
    403.53400   5.39912E-19
    403.64288   5.49337E-19
    403.75177   5.73852E-19
    403.86066   6.00313E-19
    403.96951   6.07977E-19
    404.07837   6.02943E-19
    404.18723   5.92197E-19
    404.29608   5.81396E-19
    404.40494   5.71957E-19
    404.51376   5.68038E-19
    404.62259   5.70358E-19
    404.73141   5.98014E-19
    404.84024   6.26479E-19
    404.94907   6.28572E-19
    405.05786   6.33191E-19
    405.16666   6.67136E-19
    405.30875   6.56677E-19
    405.52466   6.02811E-19
    405.74051   5.57066E-19
    405.95633   5.44640E-19
    406.17212   5.49106E-19
    406.38785   5.41285E-19
    406.60358   5.03579E-19
    406.81927   4.79518E-19
    407.03491   4.75787E-19
    407.25052   4.76073E-19
    407.46609   4.87662E-19
    407.68164   5.20961E-19
    407.89716   5.72066E-19
    408.11264   6.14099E-19
    408.32809   6.74614E-19
    408.54349   6.95242E-19
    408.75888   6.53930E-19
    408.97421   6.24636E-19
    409.18951   5.95834E-19
    409.40479   6.06237E-19
    409.62003   6.20108E-19
    409.83524   5.87900E-19
    410.05042   5.77519E-19
    410.26556   6.26071E-19
    410.48065   6.69977E-19
    410.69574   6.53799E-19
    410.91077   6.25501E-19
    411.12576   5.85995E-19
    411.34076   5.47607E-19
    411.55569   5.21155E-19
    411.77060   5.16557E-19
    411.98547   5.18334E-19
    412.20032   5.14833E-19
    412.41510   5.23733E-19
    412.62988   5.64809E-19
    412.84464   5.99894E-19
    413.05933   6.48784E-19
    413.27399   7.03066E-19
    413.48865   7.41338E-19
    413.70325   7.15877E-19
    413.91782   6.33184E-19
    414.13235   5.59919E-19
    414.34686   5.34780E-19
    414.56134   5.55090E-19
    414.77579   5.66629E-19
    414.99020   5.70257E-19
    415.20459   5.64262E-19
    415.41895   5.20903E-19
    415.63324   4.79252E-19
    415.84753   4.72343E-19
    416.06180   4.73998E-19
    416.27600   4.76353E-19
    416.49020   4.77902E-19
    416.70435   4.81930E-19
    416.91846   4.85530E-19
    417.13257   5.15502E-19
    417.34662   5.34902E-19
    417.56064   5.21281E-19
    417.77463   5.33116E-19
    417.98859   5.38825E-19
    418.20255   5.45110E-19
    418.41644   5.56264E-19
    418.63031   5.61926E-19
    418.84415   5.25215E-19
    419.05795   5.18932E-19
    419.27170   5.55440E-19
    419.48544   5.74668E-19
    419.69916   5.88884E-19
    419.91284   5.75686E-19
    420.12650   5.68851E-19
    420.34012   5.81280E-19
    420.55368   5.72141E-19
    420.76724   5.84652E-19
    420.98077   5.89817E-19
    421.19427   5.61433E-19
    421.40775   5.37943E-19
    421.62115   5.46238E-19
    421.83456   5.85658E-19
    422.04794   6.02147E-19
    422.26126   5.82478E-19
    422.47458   5.76360E-19
    422.68787   5.61236E-19
    422.90109   5.50979E-19
    423.11432   5.50322E-19
    423.32751   5.75284E-19
    423.54068   5.89839E-19
    423.75378   5.92938E-19
    423.96689   6.05217E-19
    424.17996   6.03626E-19
    424.39301   6.25837E-19
    424.60602   6.26340E-19
    424.81897   5.94027E-19
    425.03192   5.43322E-19
    425.24484   5.12756E-19
    425.45773   5.06148E-19
    425.67059   4.76465E-19
    425.88342   4.46743E-19
    426.09622   4.26152E-19
    426.30899   4.27363E-19
    426.52173   4.24573E-19
    426.73444   4.28838E-19
    426.94711   4.86083E-19
    427.15976   5.38507E-19
    427.37238   5.80328E-19
    427.58499   5.76939E-19
    427.79755   5.87729E-19
    428.01007   5.98514E-19
    428.22260   5.80354E-19
    428.43506   5.55183E-19
    428.64749   5.13515E-19
    428.85992   4.98775E-19
    429.07233   4.66432E-19
    429.28467   4.33845E-19
    429.49701   4.15336E-19
    429.70932   4.09599E-19
    429.92160   4.27615E-19
    430.13385   4.80717E-19
    430.34607   5.41977E-19
    430.55826   5.80896E-19
    430.77042   5.92709E-19
    430.98254   5.94726E-19
    431.19464   5.71679E-19
    431.40674   5.61782E-19
    431.61877   5.36876E-19
    431.83081   5.01886E-19
    432.04279   4.62117E-19
    432.25476   4.35666E-19
    432.46671   4.17446E-19
    432.67862   4.26134E-19
    432.89050   4.55196E-19
    433.10236   4.85825E-19
    433.31418   5.15120E-19
    433.52600   5.41679E-19
    433.73776   5.60187E-19
    433.94952   5.61391E-19
    434.16122   5.30340E-19
    434.37292   5.21241E-19
    434.58459   5.56563E-19
    434.79623   6.47722E-19
    435.00784   7.01406E-19
    435.21942   6.83567E-19
    435.43097   6.14381E-19
    435.64252   5.85002E-19
    435.85400   5.67116E-19
    436.06549   5.49561E-19
    436.27695   5.29983E-19
    436.48837   5.08897E-19
    436.69977   4.90294E-19
    436.91113   4.52529E-19
    437.12247   4.12833E-19
    437.33380   3.93166E-19
    437.54510   3.81791E-19
    437.75635   3.77490E-19
    437.96759   3.68554E-19
    438.17880   3.79566E-19
    438.39001   4.32377E-19
    438.60117   5.37481E-19
    438.81229   6.16551E-19
    439.02341   6.51299E-19
    439.23450   6.63603E-19
    439.44556   6.55551E-19
    439.65659   5.96078E-19
    439.86758   5.72680E-19
    440.07858   5.41910E-19
    440.28955   4.65561E-19
    440.50049   4.19231E-19
    440.71140   4.10051E-19
    440.92227   4.09131E-19
    441.13312   3.97601E-19
    441.34396   3.66624E-19
    441.55478   3.51935E-19
    441.76553   3.40181E-19
    441.97632   3.49994E-19
    442.18704   3.69872E-19
    442.39774   3.70960E-19
    442.60843   3.84095E-19
    442.81909   4.03301E-19
    443.02972   4.05144E-19
    443.24033   4.12981E-19
    443.45093   4.28273E-19
    443.66150   4.27562E-19
    443.87204   4.33115E-19
    444.08255   4.74633E-19
    444.29303   5.17857E-19
    444.50351   5.76114E-19
    444.71393   6.38872E-19
    444.92435   6.14839E-19
    445.13477   5.56406E-19
    445.34512   5.17840E-19
    445.55548   4.95082E-19
    445.76581   4.67943E-19
    445.97610   4.51797E-19
    446.18637   4.24607E-19
    446.39664   3.90531E-19
    446.60687   3.80095E-19
    446.81708   3.89292E-19
    447.02725   4.09906E-19
    447.23743   4.44941E-19
    447.44757   5.18333E-19
    447.65768   6.04798E-19
    447.86777   6.86500E-19
    448.07785   7.01962E-19
    448.28787   6.45613E-19
    448.49789   5.44116E-19
    448.70792   5.01590E-19
    448.91788   4.74489E-19
    449.12784   4.44503E-19
    449.33780   4.21260E-19
    449.54770   3.92016E-19
    449.75760   3.72851E-19
    449.96747   3.80162E-19
    450.17731   4.14345E-19
    450.38712   4.31832E-19
    450.59692   4.35279E-19
    450.80670   4.23274E-19
    451.01648   4.13562E-19
    451.22623   4.05924E-19
    451.43591   3.92505E-19
    451.64563   4.09042E-19
    451.85529   4.37969E-19
    452.06494   4.40163E-19
    452.27457   4.37134E-19
    452.48419   4.52441E-19
    452.69379   4.39770E-19
    452.90335   4.11539E-19
    453.11292   4.25963E-19
    453.32242   4.37764E-19
    453.53192   4.09064E-19
    453.74142   3.70028E-19
    453.95087   3.51087E-19
    454.16031   3.49208E-19
    454.36975   3.81334E-19
    454.57913   4.31671E-19
    454.78854   4.28590E-19
    454.99789   4.20347E-19
    455.20724   4.02417E-19
    455.41656   3.84855E-19
    455.62585   3.83769E-19
    455.83514   4.01618E-19
    456.04440   3.96887E-19
    456.25363   3.70107E-19
    456.46286   3.34476E-19
    456.67206   3.13109E-19
    456.88126   3.28087E-19
    457.09042   3.64261E-19
    457.29956   4.23998E-19
    457.50867   4.63747E-19
    457.71777   4.76162E-19
    457.92688   4.87175E-19
    458.13593   4.58749E-19
    458.34497   4.52617E-19
    458.55402   4.42586E-19
    458.76303   4.06295E-19
    458.97202   3.64369E-19
    459.18100   3.68548E-19
    459.38995   3.90844E-19
    459.59888   3.97715E-19
    459.80780   4.05615E-19
    460.01669   4.28167E-19
    460.22559   4.54331E-19
    460.43445   4.73408E-19
    460.64328   4.49522E-19
    460.85211   4.25264E-19
    461.06091   4.09644E-19
    461.26971   3.97534E-19
    461.47849   3.72625E-19
    461.68723   3.50884E-19
    461.89597   3.42100E-19
    462.10468   3.46707E-19
    462.31339   3.54453E-19
    462.52206   3.88413E-19
    462.73074   4.67926E-19
    462.93939   5.33008E-19
    463.14801   5.28065E-19
    463.35663   5.24441E-19
    463.56522   4.84882E-19
    463.77380   4.40577E-19
    463.98236   4.20816E-19
    464.19092   4.07759E-19
    464.39944   4.07987E-19
    464.60797   3.90347E-19
    464.81647   3.67268E-19
    465.02493   3.44069E-19
    465.23340   3.12406E-19
    465.44186   2.78270E-19
    465.65030   2.63051E-19
    465.85870   2.61367E-19
    466.06711   2.74439E-19
    466.27548   3.07020E-19
    466.48386   3.48278E-19
    466.69220   3.93412E-19
    466.90054   4.22668E-19
    467.10886   4.09059E-19
    467.31717   3.87079E-19
    467.52545   3.80277E-19
    467.73373   3.88826E-19
    467.94199   3.92051E-19
    468.15024   3.57908E-19
    468.35846   3.25600E-19
    468.56668   3.21047E-19
    468.77487   3.17804E-19
    468.98306   3.11339E-19
    469.19122   3.01239E-19
    469.39938   2.85760E-19
    469.60751   2.73852E-19
    469.81564   2.89415E-19
    470.02377   3.05188E-19
    470.23184   3.14410E-19
    470.43994   3.16545E-19
    470.64801   2.97923E-19
    470.85605   2.89590E-19
    471.06409   2.85152E-19
    471.27213   2.86251E-19
    471.48013   2.96473E-19
    471.68814   3.17740E-19
    471.89612   3.25009E-19
    472.10410   3.17370E-19
    472.31204   3.05925E-19
    472.51999   3.01755E-19
    472.72794   3.11518E-19
    472.93585   3.11260E-19
    473.14374   3.28118E-19
    473.35162   3.60727E-19
    473.55951   4.18737E-19
    473.76740   4.75228E-19
    473.97522   4.77404E-19
    474.18307   4.45588E-19
    474.39090   4.29363E-19
    474.59872   4.45781E-19
    474.80652   4.46266E-19
    475.01431   4.23617E-19
    475.22208   4.07525E-19
    475.42984   3.80071E-19
    475.63760   3.46629E-19
    475.84534   3.40704E-19
    476.05307   3.30223E-19
    476.26077   3.19490E-19
    476.46851   3.07385E-19
    476.67618   3.03301E-19
    476.88388   2.95811E-19
    477.09155   2.93335E-19
    477.29919   2.93839E-19
    477.50684   2.98344E-19
    477.71448   2.96433E-19
    477.92212   2.96283E-19
    478.12973   2.84713E-19
    478.33731   2.82845E-19
    478.54492   2.90439E-19
    478.75250   3.02545E-19
    478.96008   3.11066E-19
    479.16763   3.36922E-19
    479.37518   3.75798E-19
    479.58273   3.93662E-19
    479.79025   3.91482E-19
    479.99777   3.53030E-19
    480.20529   3.30025E-19
    480.41278   3.30350E-19
    480.62027   3.20872E-19
    480.82776   3.12334E-19
    481.03522   3.24513E-19
    481.24268   3.43188E-19
    481.45013   3.29930E-19
    481.65756   3.09723E-19
    481.86499   2.90333E-19
    482.07242   2.70172E-19
    482.27985   2.58629E-19
    482.48724   2.55010E-19
    482.69464   2.41301E-19
    482.90201   2.21294E-19
    483.10941   2.15248E-19
    483.31677   2.13452E-19
    483.52414   2.08356E-19
    483.73148   2.12972E-19
    483.93881   2.23358E-19
    484.14615   2.30910E-19
    484.35349   2.42723E-19
    484.56079   2.46709E-19
    484.76810   2.51757E-19
    484.97540   2.54110E-19
    485.18271   2.51984E-19
    485.38998   2.46321E-19
    485.59726   2.53175E-19
    485.80453   2.58640E-19
    486.01181   2.65188E-19
    486.21906   2.52807E-19
    486.42630   2.29631E-19
    486.63354   2.30761E-19
    486.84079   2.34251E-19
    487.04800   2.24350E-19
    487.25522   2.27132E-19
    487.46243   2.40354E-19
    487.66965   2.60393E-19
    487.87686   2.80015E-19
    488.08405   3.09852E-19
    488.29123   3.62637E-19
    488.49841   4.01447E-19
    488.70560   4.38746E-19
    488.91275   4.22196E-19
    489.11990   3.77847E-19
    489.32706   3.70301E-19
    489.53421   3.47914E-19
    489.74136   3.22358E-19
    489.94849   2.97350E-19
    490.15564   2.93768E-19
    490.36276   2.79974E-19
    490.56989   2.53729E-19
    490.77701   2.34445E-19
    490.98410   2.14031E-19
    491.19122   2.01993E-19
    491.39832   2.01910E-19
    491.60541   2.11821E-19
    491.81250   2.32222E-19
    492.01959   2.39176E-19
    492.22665   2.28836E-19
    492.43375   2.18088E-19
    492.64084   2.23073E-19
    492.84790   2.28839E-19
    493.05496   2.46752E-19
    493.26202   2.64425E-19
    493.46909   2.72972E-19
    493.67612   2.72789E-19
    493.88318   2.80131E-19
    494.09021   2.95816E-19
    494.29727   3.11664E-19
    494.50430   3.21827E-19
    494.71133   3.23024E-19
    494.91837   3.02071E-19
    495.12540   2.86726E-19
    495.33240   2.85254E-19
    495.53943   2.97448E-19
    495.74646   3.00729E-19
    495.95346   2.97253E-19
    496.16049   2.97338E-19
    496.36749   2.96579E-19
    496.57449   2.96882E-19
    496.78149   2.77167E-19
    496.98849   2.47198E-19
    497.19550   2.28797E-19
    497.40250   2.12267E-19
    497.60950   1.98969E-19
    497.81650   1.94623E-19
    498.02350   1.89225E-19
    498.23047   1.71949E-19
    498.43747   1.67367E-19
    498.64444   1.64207E-19
    498.85144   1.58631E-19
    499.05844   1.53330E-19
    499.26541   1.43470E-19
    499.47241   1.36897E-19
    499.67938   1.37788E-19
    499.88635   1.39237E-19
    500.09335   1.38279E-19
    500.30032   1.43559E-19
    500.50729   1.48862E-19
    500.71426   1.54642E-19
    500.92126   1.67572E-19
    501.12823   1.71885E-19
    501.33521   1.64335E-19
    501.54218   1.68481E-19
    501.74918   1.78512E-19
    501.95615   1.95922E-19
    502.16312   2.13797E-19
    502.37009   2.33039E-19
    502.57709   2.48581E-19
    502.78406   2.67304E-19
    502.99103   2.49708E-19
    503.19800   2.19911E-19
    503.40500   2.02801E-19
    503.61197   1.95944E-19
    503.81897   1.99653E-19
    504.02594   2.20650E-19
    504.23294   2.54704E-19
    504.43991   2.80331E-19
    504.64691   3.11262E-19
    504.85388   3.08128E-19
    505.06088   2.82197E-19
    505.26788   2.64239E-19
    505.47488   2.33448E-19
    505.68188   2.10760E-19
    505.88889   2.03532E-19
    506.09589   2.08647E-19
    506.30289   2.13102E-19
    506.50989   2.05084E-19
    506.71689   1.99033E-19
    506.92392   1.88923E-19
    507.13092   1.77911E-19
    507.33795   1.72373E-19
    507.54495   1.68611E-19
    507.75198   1.71177E-19
    507.95901   1.79791E-19
    508.16605   1.83541E-19
    508.37308   2.00370E-19
    508.58011   2.08294E-19
    508.78714   2.12302E-19
    508.99420   2.32076E-19
    509.20126   2.34138E-19
    509.40833   2.33265E-19
    509.61536   2.55031E-19
    509.82242   2.53316E-19
    510.02951   2.40064E-19
    510.23657   2.32963E-19
    510.44363   2.26174E-19
    510.65073   2.23458E-19
    510.85779   2.23740E-19
    511.06488   2.24246E-19
    511.27197   2.30217E-19
    511.47906   2.12571E-19
    511.68619   2.01954E-19
    511.89328   2.12226E-19
    512.10040   2.21321E-19
    512.30750   2.28271E-19
    512.51465   2.28460E-19
    512.72180   2.06650E-19
    512.92889   1.91162E-19
    513.13605   1.80998E-19
    513.34320   1.70283E-19
    513.55035   1.68291E-19
    513.75751   1.59288E-19
    513.96472   1.51258E-19
    514.17188   1.55742E-19
    514.37903   1.54435E-19
    514.58624   1.49902E-19
    514.79346   1.41949E-19
    515.00061   1.36143E-19
    515.20782   1.33010E-19
    515.41504   1.36448E-19
    515.62225   1.38366E-19
    515.82953   1.32283E-19
    516.03674   1.29408E-19
    516.24396   1.32679E-19
    516.45123   1.30183E-19
    516.65851   1.19687E-19
    516.86578   1.12818E-19
    517.07306   1.14749E-19
    517.28033   1.19793E-19
    517.48761   1.16658E-19
    517.69495   1.21808E-19
    517.90222   1.37687E-19
    518.10956   1.53287E-19
    518.31689   1.78428E-19
    518.52423   1.86351E-19
    518.73157   1.70523E-19
    518.93890   1.61446E-19
    519.14630   1.68633E-19
    519.35364   1.70118E-19
    519.56104   1.67877E-19
    519.76843   1.71134E-19
    519.97583   1.75895E-19
    520.18323   1.66098E-19
    520.39069   1.53669E-19
    520.59808   1.50012E-19
    520.80554   1.48544E-19
    521.01300   1.39980E-19
    521.22046   1.30026E-19
    521.42792   1.32105E-19
    521.63538   1.30420E-19
    521.84290   1.29410E-19
    522.05042   1.29135E-19
    522.25793   1.25763E-19
    522.46545   1.29803E-19
    522.67297   1.37238E-19
    522.88055   1.40911E-19
    523.08807   1.42365E-19
    523.29565   1.30516E-19
    523.50323   1.24271E-19
    523.71088   1.29015E-19
    523.91846   1.35056E-19
    524.12610   1.41847E-19
    524.33368   1.50037E-19
    524.54132   1.63958E-19
    524.74902   1.91418E-19
    524.95667   2.09333E-19
    525.16437   2.16568E-19
    525.37207   2.17329E-19
    525.57977   2.01199E-19
    525.78748   1.96089E-19
    525.99518   1.96043E-19
    526.20294   1.98186E-19
    526.41071   2.01220E-19
    526.61847   1.93197E-19
    526.82629   1.72066E-19
    527.03406   1.52602E-19
    527.24188   1.50454E-19
    527.44971   1.60033E-19
    527.65753   1.65411E-19
    527.86542   1.68368E-19
    528.07324   1.64096E-19
    528.28113   1.55286E-19
    528.48907   1.47180E-19
    528.69696   1.40020E-19
    528.90491   1.36819E-19
    529.11285   1.36788E-19
    529.32080   1.33663E-19
    529.52875   1.25865E-19
    529.73676   1.29063E-19
    529.94476   1.36550E-19
    530.15277   1.45289E-19
    530.36078   1.48589E-19
    530.56885   1.38757E-19
    530.77692   1.32730E-19
    530.98499   1.36328E-19
    531.19312   1.39421E-19
    531.40125   1.38796E-19
    531.60938   1.41580E-19
    531.81750   1.41083E-19
    532.02563   1.41895E-19
    532.23383   1.46588E-19
    532.44202   1.49384E-19
    532.65027   1.46138E-19
    532.85846   1.37467E-19
    533.06671   1.35675E-19
    533.27496   1.32450E-19
    533.48328   1.17304E-19
    533.69159   1.11825E-19
    533.89990   1.15080E-19
    534.10822   1.14292E-19
    534.31659   1.10360E-19
    534.52496   1.04205E-19
    534.73334   9.77064E-20
    534.94171   8.79549E-20
    535.15015   7.53832E-20
    535.35858   7.18757E-20
    535.56708   7.35648E-20
    535.77557   7.39819E-20
    535.98407   7.81335E-20
    536.19257   8.34335E-20
    536.40112   8.25790E-20
    536.60968   7.66085E-20
    536.81824   7.24143E-20
    537.02686   7.41075E-20
    537.23547   7.58283E-20
    537.44409   7.47536E-20
    537.65277   7.77248E-20
    537.86145   9.12595E-20
    538.07013   1.05300E-19
    538.27887   1.15142E-19
    538.48761   1.20653E-19
    538.69635   1.12683E-19
    538.90515   1.13099E-19
    539.11389   1.20167E-19
    539.32275   1.15682E-19
    539.53156   1.00894E-19
    539.74042   9.29151E-20
    539.94934   8.67854E-20
    540.15820   7.79520E-20
    540.36713   7.03213E-20
    540.57611   6.76284E-20
    540.78510   7.18563E-20
    540.99408   7.87710E-20
    541.20306   8.63079E-20
    541.41211   9.88819E-20
    541.62115   1.15575E-19
    541.83026   1.20955E-19
    542.03937   1.27254E-19
    542.24847   1.33776E-19
    542.45764   1.31049E-19
    542.66681   1.32158E-19
    542.87598   1.37557E-19
    543.08521   1.38978E-19
    543.29443   1.34327E-19
    543.50372   1.31834E-19
    543.71301   1.23679E-19
    543.92230   1.16554E-19
    544.13165   1.12311E-19
    544.34100   1.09296E-19
    544.55042   1.15878E-19
    544.75977   1.25018E-19
    544.96924   1.40167E-19
    545.17865   1.47167E-19
    545.38818   1.33755E-19
    545.59766   1.19564E-19
    545.80719   1.09088E-19
    546.01672   1.07099E-19
    546.22632   1.05194E-19
    546.43591   9.49003E-20
    546.64557   9.09070E-20
    546.85522   9.57362E-20
    547.06488   1.07538E-19
    547.27460   1.20517E-19
    547.48438   1.23859E-19
    547.69409   1.26344E-19
    547.90387   1.22867E-19
    548.11371   1.19713E-19
    548.32355   1.13884E-19
    548.53339   1.16108E-19
    548.74329   1.18556E-19
    548.95325   1.21832E-19
    549.16321   1.28460E-19
    549.37317   1.20917E-19
    549.58313   1.10521E-19
    549.79315   1.01368E-19
    550.00323   9.63899E-20
    550.21332   9.43515E-20
    550.42340   9.15816E-20
    550.63354   8.88063E-20
    550.84375   8.60436E-20
    551.05396   7.93116E-20
    551.26416   7.70803E-20
    551.47443   7.94992E-20
    551.68469   8.20399E-20
    551.89502   8.20926E-20
    552.10535   8.55628E-20
    552.31567   9.39499E-20
    552.52606   9.29842E-20
    552.73651   9.73799E-20
    552.94696   1.09697E-19
    553.15747   1.10775E-19
    553.36798   9.91575E-20
    553.57849   8.80428E-20
    553.78906   9.00706E-20
    553.99969   8.96470E-20
    554.21033   8.60239E-20
    554.42096   8.11763E-20
    554.63165   7.34003E-20
    554.84241   6.65227E-20
    555.05316   6.40336E-20
    555.26392   6.31524E-20
    555.47473   5.91823E-20
    555.68561   5.38140E-20
    555.89648   5.19153E-20
    556.10742   5.33414E-20
    556.31836   5.74624E-20
    556.52930   5.92190E-20
    556.74030   5.71999E-20
    556.95135   5.69502E-20
    557.16241   5.62688E-20
    557.37354   5.60670E-20
    557.58466   5.60448E-20
    557.79584   5.86860E-20
    558.00702   6.26602E-20
    558.21826   6.16507E-20
    558.42950   5.66500E-20
    558.64081   5.32293E-20
    558.85217   5.03065E-20
    559.06354   4.52543E-20
    559.27490   4.34298E-20
    559.48633   4.61657E-20
    559.69781   4.63755E-20
    559.90930   4.81724E-20
    560.12085   5.13066E-20
    560.33240   5.32644E-20
    560.54401   5.46895E-20
    560.75562   5.62019E-20
    560.96729   5.88463E-20
    561.17902   6.06095E-20
    561.39075   6.11124E-20
    561.60254   6.41848E-20
    561.81433   6.48490E-20
    562.02618   6.33319E-20
    562.23810   6.32222E-20
    562.45001   6.86684E-20
    562.66193   7.59095E-20
    562.87396   7.98351E-20
    563.08594   8.23389E-20
    563.29803   9.24870E-20
    563.51013   1.08590E-19
    563.72223   1.12977E-19
    563.93445   9.95429E-20
    564.14661   1.03335E-19
    564.35889   1.18590E-19
    564.57117   1.17250E-19
    564.78345   1.05349E-19
    564.99579   9.41855E-20
    565.20819   8.98498E-20
    565.42065   8.92522E-20
    565.63312   8.02567E-20
    565.84558   6.48916E-20
    566.05817   5.45140E-20
    566.27075   4.90046E-20
    566.48334   4.98462E-20
    566.69598   5.11939E-20
    566.90869   4.95398E-20
    567.12146   5.36795E-20
    567.33423   6.37538E-20
    567.54700   6.80221E-20
    567.75989   7.11997E-20
    567.97278   7.62724E-20
    568.18567   8.03637E-20
    568.39868   7.57622E-20
    568.61169   6.79894E-20
    568.82471   6.46188E-20
    569.03778   6.68980E-20
    569.25092   6.57858E-20
    569.46411   6.35742E-20
    569.67731   6.59060E-20
    569.89056   7.31828E-20
    570.10382   7.89949E-20
    570.31720   8.27819E-20
    570.53052   9.43508E-20
    570.74396   9.93650E-20
    570.95740   9.34769E-20
    571.17090   9.10184E-20
    571.38446   8.81528E-20
    571.59802   8.94058E-20
    571.81165   9.00243E-20
    572.02533   9.17582E-20
    572.23901   8.69725E-20
    572.45276   7.64095E-20
    572.66656   6.80259E-20
    572.88037   6.50147E-20
    573.09424   6.61666E-20
    573.30817   6.16529E-20
    573.52216   5.62478E-20
    573.73615   5.39227E-20
    573.95020   4.94316E-20
    574.16425   4.56727E-20
    574.37842   4.41516E-20
    574.59259   4.20309E-20
    574.80682   4.24193E-20
    575.02106   4.24017E-20
    575.23535   4.00335E-20
    575.44971   3.79938E-20
    575.66412   3.39815E-20
    575.87854   3.05460E-20
    576.09308   2.83984E-20
    576.30762   2.75304E-20
    576.52216   2.69390E-20
    576.73682   2.70613E-20
    576.95148   2.85286E-20
    577.16620   2.95126E-20
    577.38092   2.90097E-20
    577.59576   3.14590E-20
    577.81061   3.48666E-20
    578.02551   3.54138E-20
    578.24042   3.78997E-20
    578.45544   4.41240E-20
    578.67047   5.06459E-20
    578.88556   5.38903E-20
    579.10065   5.43751E-20
    579.31586   5.20390E-20
    579.53107   5.05148E-20
    579.74634   5.07858E-20
    579.96167   5.03048E-20
    580.17700   4.86249E-20
    580.39246   4.77176E-20
    580.60791   4.38474E-20
    580.82343   3.87743E-20
    581.03894   3.44737E-20
    581.25458   3.18293E-20
    581.47021   3.15790E-20
    581.68591   3.25287E-20
    581.90167   3.18764E-20
    582.11749   3.00158E-20
    582.33331   2.82284E-20
    582.54926   2.81781E-20
    582.76520   3.03222E-20
    582.98120   3.28306E-20
    583.19720   3.31578E-20
    583.41333   3.19714E-20
    583.62946   3.24126E-20
    583.84564   3.51167E-20
    584.06189   3.72863E-20
    584.27820   3.99846E-20
    584.49457   4.51586E-20
    584.71094   5.04735E-20
    584.92743   5.31536E-20
    585.14392   5.49298E-20
    585.36047   5.81175E-20
    585.57709   5.84459E-20
    585.79370   5.22087E-20
    586.01044   4.92103E-20
    586.22717   4.93396E-20
    586.44403   4.88250E-20
    586.66089   4.83820E-20
    586.87781   4.77580E-20
    587.09473   4.50785E-20
    587.31177   4.19873E-20
    587.52887   3.99208E-20
    587.74597   3.74343E-20
    587.96313   3.56883E-20
    588.18036   3.48343E-20
    588.39764   3.46336E-20
    588.61499   3.45389E-20
    588.83240   3.60157E-20
    589.04987   3.88684E-20
    589.26733   4.36858E-20
    589.48492   4.66426E-20
    589.70251   4.72659E-20
    589.92017   4.91796E-20
    590.13794   5.34844E-20
    590.35571   5.87267E-20
    590.57349   5.79669E-20
    590.79138   5.43294E-20
    591.00934   5.08651E-20
    591.22736   5.25249E-20
    591.44537   6.02024E-20
    591.66351   6.55522E-20
    591.88165   6.77301E-20
    592.09985   7.17117E-20
    592.31812   7.10230E-20
    592.53644   6.63664E-20
    592.75488   6.96334E-20
    592.97327   7.26219E-20
    593.19177   6.34551E-20
    593.41034   5.42406E-20
    593.62897   5.18333E-20
    593.84766   4.54941E-20
    594.06635   3.74248E-20
    594.28516   3.40811E-20
    594.50397   3.39404E-20
    594.72290   3.23749E-20
    594.94183   2.94463E-20
    595.16089   2.66663E-20
    595.37994   2.44066E-20
    595.59906   2.34695E-20
    595.81830   2.34447E-20
    596.03754   2.56301E-20
    596.25684   2.76907E-20
    596.47620   2.63745E-20
    596.69562   2.54473E-20
    596.91516   2.66486E-20
    597.13470   2.80918E-20
    597.35431   2.85652E-20
    597.57397   2.92487E-20
    597.79370   2.95435E-20
    598.01349   2.81304E-20
    598.23334   2.84561E-20
    598.45325   3.08277E-20
    598.67322   3.32148E-20
    598.89325   3.50383E-20
    599.11334   3.53076E-20
    599.33350   3.53575E-20
    599.55371   3.83204E-20
    599.77399   4.18875E-20
    599.99432   4.24341E-20
    600.21472   4.21157E-20
    600.43518   4.28312E-20
    600.65570   4.22640E-20
    600.87628   4.04713E-20
    601.09698   3.97865E-20
    601.31769   4.06467E-20
    601.53845   3.94340E-20
    601.75928   3.75679E-20
    601.98016   3.55790E-20
    602.20117   3.24985E-20
    602.42218   3.01715E-20
    602.64331   2.74092E-20
    602.86444   2.44240E-20
    603.08563   2.10359E-20
    603.30695   1.76489E-20
    603.52832   1.57568E-20
    603.74969   1.49987E-20
    603.97119   1.40707E-20
    604.19275   1.32837E-20
    604.41437   1.27767E-20
    604.63605   1.24713E-20
    604.85779   1.33920E-20
    605.07959   1.53491E-20
    605.30145   1.70410E-20
    605.52338   1.75599E-20
    605.74536   1.64170E-20
    605.96747   1.43263E-20
    606.18958   1.34377E-20
    606.41180   1.42513E-20
    606.63403   1.56285E-20
    606.85638   1.59770E-20
    607.07880   1.52773E-20
    607.30127   1.52823E-20
    607.52380   1.64649E-20
    607.74640   1.81985E-20
    607.96906   1.86169E-20
    608.19183   1.72728E-20
    608.41461   1.68752E-20
    608.63751   1.68359E-20
    608.86041   1.64779E-20
    609.08344   1.66931E-20
    609.30652   1.65699E-20
    609.52966   1.62956E-20
    609.75287   1.63618E-20
    609.97620   1.66748E-20
    610.19952   1.71594E-20
    610.31323   1.73976E-20
    610.53265   1.73397E-20
    610.75195   1.95713E-20
    610.97125   2.40009E-20
    611.19049   2.80563E-20
    611.40967   3.41349E-20
    611.62872   3.63146E-20
    611.84778   3.66694E-20
    612.06677   4.28303E-20
    612.28564   4.57943E-20
    612.50452   5.03838E-20
    612.72333   5.27474E-20
    612.94208   3.95095E-20
    613.16071   3.09448E-20
    613.37933   2.89422E-20
    613.59790   3.01607E-20
    613.81641   3.17833E-20
    614.03485   2.97635E-20
    614.25317   3.01906E-20
    614.47150   2.76443E-20
    614.68976   2.48383E-20
    614.90796   2.38315E-20
    615.12610   2.42088E-20
    615.34418   2.50765E-20
    615.56219   2.83714E-20
    615.78015   3.03728E-20
    615.99811   3.11267E-20
    616.21594   3.30510E-20
    616.43372   3.60726E-20
    616.65149   4.01406E-20
    616.86914   3.78002E-20
    617.08673   3.36797E-20
    617.30432   3.16167E-20
    617.52185   3.09550E-20
    617.73926   3.11459E-20
    617.95667   2.77469E-20
    618.17401   2.34042E-20
    618.39130   1.98095E-20
    618.60852   1.86007E-20
    618.82568   1.88260E-20
    619.04279   1.95585E-20
    619.25983   2.03975E-20
    619.47681   2.22494E-20
    619.69379   2.34177E-20
    619.91064   2.31294E-20
    620.12750   2.70467E-20
    620.34430   3.06151E-20
    620.56104   3.11622E-20
    620.77771   2.98723E-20
    620.99432   2.68591E-20
    621.21088   2.42115E-20
    621.42737   2.08356E-20
    621.64380   1.91555E-20
    621.86023   1.78294E-20
    622.07660   1.67527E-20
    622.29285   1.75563E-20
    622.50909   1.93125E-20
    622.72528   1.92832E-20
    622.94147   1.87743E-20
    623.15753   1.98896E-20
    623.37354   2.12475E-20
    623.58954   2.08716E-20
    623.80548   2.03095E-20
    624.02130   1.89984E-20
    624.23712   1.94334E-20
    624.45294   1.91747E-20
    624.66864   1.87691E-20
    624.88428   1.84988E-20
    625.09991   1.91034E-20
    625.31549   1.87186E-20
    625.53101   1.76527E-20
    625.74646   1.73346E-20
    625.96185   1.61633E-20
    626.17725   1.52732E-20
    626.39252   1.52360E-20
    626.60779   1.56944E-20
    626.82300   1.44552E-20
    627.03821   1.37047E-20
    627.25330   1.29914E-20
    627.46838   1.25177E-20
    627.68335   1.17615E-20
    627.89832   1.11459E-20
    628.11322   1.06623E-20
    628.32813   1.04930E-20
    628.54291   1.09196E-20
    628.75769   1.10981E-20
    628.97241   1.18010E-20
    629.18707   1.12296E-20
    629.40173   9.94340E-21
    629.61627   9.14470E-21
    629.83081   8.66995E-21
    630.04529   7.68441E-21
    630.25970   7.65819E-21
    630.47412   8.82259E-21
    630.68842   9.46029E-21
    630.90271   9.80918E-21
    631.11694   1.06656E-20
    631.33118   1.15990E-20
    631.54529   1.13177E-20
    631.75940   1.16667E-20
    631.97345   1.20543E-20
    632.18750   1.23065E-20
    632.40143   1.15087E-20
    632.61536   1.03255E-20
    632.82922   9.74232E-21
    633.04309   9.84748E-21
    633.25684   1.15532E-20
    633.47058   1.26607E-20
    633.68427   1.25922E-20
    633.89795   1.21962E-20
    634.11151   1.30260E-20
    634.32507   1.30441E-20
    634.53857   1.22174E-20
    634.75208   1.06443E-20
    634.96545   1.03294E-20
    635.17883   1.13615E-20
    635.39221   1.18353E-20
    635.60547   1.17216E-20
    635.81873   1.17007E-20
    636.03192   1.30421E-20
    636.24512   1.34296E-20
    636.45819   1.26311E-20
    636.67126   1.31373E-20
    636.88434   1.33463E-20
    637.09729   1.24832E-20
    637.31024   1.27588E-20
    637.52313   1.34758E-20
    637.73602   1.45268E-20
    637.94885   1.43490E-20
    638.16162   1.24195E-20
    638.37433   1.10715E-20
    638.58704   1.17267E-20
    638.79968   1.20347E-20
    639.01233   1.23561E-20
    639.22485   1.18219E-20
    639.43738   1.16193E-20
    639.64990   1.34045E-20
    639.86237   1.45496E-20
    640.07477   1.32749E-20
    640.28711   1.26181E-20
    640.49945   1.40510E-20
    640.71173   1.41216E-20
    640.92395   1.38708E-20
    641.13617   1.41264E-20
    641.34833   1.35462E-20
    641.56042   1.45147E-20
    641.77252   1.68714E-20
    641.98456   1.71208E-20
    642.19659   1.83021E-20
    642.40851   2.04659E-20
    642.62048   2.00275E-20
    642.83234   1.85212E-20
    643.04419   1.78577E-20
    643.25598   1.91446E-20
    643.46777   1.86856E-20
    643.67950   1.65504E-20
    643.89124   1.45467E-20
    644.10284   1.32355E-20
    644.31445   1.18457E-20
    644.52606   1.16734E-20
    644.73761   1.29703E-20
    644.94910   1.45157E-20
    645.16058   1.44303E-20
    645.37201   1.46363E-20
    645.58344   1.50664E-20
    645.79474   1.50855E-20
    646.00610   1.78373E-20
    646.21735   2.02630E-20
    646.42859   2.10208E-20
    646.63983   2.33549E-20
    646.85101   2.42249E-20
    647.06213   2.41833E-20
    647.27325   2.23893E-20
    647.48431   2.30366E-20
    647.69531   2.22685E-20
    647.90631   1.96010E-20
    648.11731   1.60008E-20
    648.32819   1.25019E-20
    648.53912   1.02687E-20
    648.74994   1.03316E-20
    648.96075   1.04146E-20
    649.17157   1.03250E-20
    649.38232   9.98317E-21
    649.59302   9.69324E-21
    649.80371   9.91587E-21
    650.01434   1.09359E-20
    650.22498   1.20915E-20
    650.43555   1.21290E-20
    650.64606   1.11153E-20
    650.85657   1.16982E-20
    651.06708   1.21400E-20
    651.27753   1.17018E-20
    651.48792   1.16384E-20
    651.69830   1.01740E-20
    651.90863   9.84457E-21
    652.11896   9.52593E-21
    652.32922   9.42272E-21
    652.53949   9.63836E-21
    652.74969   9.00848E-21
    652.95990   8.43379E-21
    653.17004   8.05397E-21
    653.38013   7.63173E-21
    653.59021   7.32037E-21
    653.80029   7.19954E-21
    654.01031   7.34738E-21
    654.22028   7.30444E-21
    654.43024   7.77661E-21
    654.64020   8.38110E-21
    654.85010   8.28922E-21
    655.05994   8.00177E-21
    655.26978   7.96041E-21
    655.47955   7.68925E-21
    655.68933   9.02869E-21
    655.89911   9.01932E-21
    656.10876   7.83785E-21
    656.31848   6.79679E-21
    656.52814   6.43541E-21
    656.73773   6.90592E-21
    656.94733   6.47268E-21
    657.15692   5.60106E-21
    657.36646   5.61806E-21
    657.57593   5.86007E-21
    657.78540   5.68436E-21
    657.99481   5.50315E-21
    658.20422   5.54112E-21
    658.41364   5.64793E-21
    658.62299   5.86681E-21
    658.83234   5.92696E-21
    659.04163   6.11279E-21
    659.25092   6.15192E-21
    659.46014   6.08029E-21
    659.66937   6.21831E-21
    659.87854   5.96793E-21
    660.08771   5.50487E-21
    660.29681   4.60704E-21
    660.50592   4.46048E-21
    660.71497   4.53293E-21
    660.92401   4.20760E-21
    661.13306   4.15652E-21
    661.34204   3.58267E-21
    661.55103   3.40218E-21
    661.75995   3.45362E-21
    661.96887   3.35013E-21
    662.17773   3.06492E-21
    662.38660   2.95778E-21
    662.59546   2.89331E-21
    662.80426   3.02109E-21
    663.01300   3.01498E-21
    663.22174   2.92687E-21
    663.43048   2.94017E-21
    663.63916   2.87191E-21
    663.84784   3.06561E-21
    664.05652   2.99191E-21
    664.26514   3.22647E-21
    664.47375   3.75274E-21
    664.68231   4.15967E-21
    664.89087   4.52242E-21
    665.09937   4.74659E-21
    665.30786   4.67679E-21
    665.51636   4.92730E-21
    665.72479   5.30609E-21
    665.93323   6.32821E-21
    666.14160   6.52574E-21
    666.34998   6.74870E-21
    666.55835   7.44935E-21
    666.76666   7.32175E-21
    666.97498   7.04757E-21
    667.18323   6.89407E-21
    667.39148   7.32763E-21
    667.59973   8.33060E-21
    667.80792   9.14565E-21
    668.01611   9.77906E-21
    668.22430   9.07030E-21
    668.43243   7.90599E-21
    668.64050   8.10583E-21
    668.84863   9.01353E-21
    669.05670   9.20244E-21
    669.26471   8.33035E-21
    669.47278   9.04928E-21
    669.68073   1.05153E-20
    669.88873   1.03043E-20
    670.09668   1.00852E-20
    670.30463   9.13787E-21
    670.51251   7.65997E-21
    670.72040   6.83807E-21
    670.92828   7.04304E-21
    671.13611   8.04332E-21
    671.34393   7.77106E-21
    671.55176   7.64658E-21
    671.75952   7.98174E-21
    671.96735   8.19216E-21
    672.17505   8.15300E-21
    672.38275   9.13712E-21
    672.59045   8.88362E-21
    672.79816   8.50220E-21
    673.00580   9.38665E-21
    673.21344   1.08655E-20
    673.42108   1.25777E-20
    673.62866   1.08969E-20
    673.83624   9.34729E-21
    674.04376   9.69872E-21
    674.25134   9.33169E-21
    674.45886   8.86927E-21
    674.66632   8.41778E-21
    674.87384   8.20875E-21
    675.08130   8.75946E-21
    675.28870   9.06624E-21
    675.49615   9.38908E-21
    675.70355   9.38901E-21
    675.91089   8.85677E-21
    676.11829   8.47090E-21
    676.32562   8.63248E-21
    676.53296   9.34885E-21
    676.74023   9.19816E-21
    676.94751   8.30014E-21
    677.15479   8.71358E-21
    677.36206   8.86346E-21
    677.56927   7.67529E-21
    677.77649   6.33196E-21
    677.98370   5.88760E-21
    678.19086   5.77717E-21
    678.39801   5.40846E-21
    678.60516   5.42540E-21
    678.81232   5.58233E-21
    679.01941   5.66925E-21
    679.22650   6.08244E-21
    679.43359   6.38538E-21
    679.64063   6.56651E-21
    679.84766   6.14984E-21
    680.05469   5.91719E-21
    680.26172   5.68898E-21
    680.46869   5.49049E-21
    680.67566   5.51949E-21
    680.88263   5.47649E-21
    681.08954   5.26146E-21
    681.29651   4.67509E-21
    681.50342   4.40806E-21
    681.71027   4.36855E-21
    681.91718   4.02090E-21
    682.12402   3.90792E-21
    682.33087   3.99418E-21
    682.53772   3.90122E-21
    682.74451   4.32528E-21
    682.95129   4.63066E-21
    683.15808   4.98535E-21
    683.36487   4.73167E-21
    683.57159   4.33287E-21
    683.77838   3.94837E-21
    683.98511   3.94096E-21
    684.19177   3.68216E-21
    684.39850   3.99327E-21
    684.60516   4.29478E-21
    684.81183   4.11847E-21
    685.01849   4.07068E-21
    685.22510   4.45948E-21
    685.43176   5.53565E-21
    685.63837   5.28422E-21
    685.84497   4.67805E-21
    686.05151   4.87621E-21
    686.25812   4.96537E-21
    686.46466   4.95033E-21
    686.67120   4.24333E-21
    686.87769   3.72823E-21
    687.08423   3.20574E-21
    687.29071   3.45826E-21
    687.49719   3.25164E-21
    687.70367   2.90900E-21
    687.91016   2.77959E-21
    688.11658   2.59810E-21
    688.32300   2.59938E-21
    688.52942   2.70769E-21
    688.73584   2.57958E-21
    688.94226   2.79384E-21
    689.14862   2.75727E-21
    689.35504   2.61420E-21
    689.56140   2.69425E-21
    689.76770   2.70197E-21
    689.97406   2.60656E-21
    690.18036   2.63144E-21
    690.38672   2.53069E-21
    690.59302   2.47507E-21
    690.79932   2.61013E-21
    691.00555   2.57598E-21
    691.21185   2.48587E-21
    691.41809   2.58887E-21
    691.62433   2.49448E-21
    691.83057   2.47655E-21
    692.03680   2.37384E-21
    692.24298   2.12998E-21
    692.44922   2.00621E-21
    692.65540   2.09406E-21
    692.86157   2.14700E-21
    693.06775   2.13125E-21
    693.27393   2.10626E-21
    693.48004   2.02526E-21
    693.68622   1.93151E-21
    693.89233   2.03849E-21
    694.09845   2.15807E-21
    694.30457   2.16204E-21
    694.51068   2.21234E-21
    694.71674   2.23711E-21
    694.92285   2.20373E-21
    695.12891   2.32175E-21
    695.33496   2.41560E-21
    695.54102   2.44537E-21
    695.74707   2.51610E-21
    695.95313   2.37390E-21
    696.15912   2.20121E-21
    696.36511   2.53338E-21
    696.57117   2.56666E-21
    696.77716   2.25220E-21
    696.98315   2.16562E-21
    697.18909   1.95417E-21
    697.39508   1.67728E-21
    697.60101   1.59432E-21
    697.80701   1.53544E-21
    698.01294   1.63531E-21
    698.21887   1.59273E-21
    698.42480   1.43117E-21
    698.63074   1.44225E-21
    698.83667   1.45230E-21
    699.04254   1.54187E-21
    699.24847   1.66600E-21
    699.45435   1.86503E-21
    699.66022   2.19241E-21
    699.86609   2.31477E-21
    700.07196   2.25424E-21
    700.27783   2.14992E-21
    700.48370   2.21854E-21
    700.68958   2.24680E-21
    700.89539   2.18423E-21
    701.10120   2.00960E-21
    701.30707   1.94601E-21
    701.51288   2.07931E-21
    701.71869   2.27593E-21
    701.92450   2.42877E-21
    702.13031   2.48828E-21
    702.33606   2.64066E-21
    702.54187   2.62974E-21
    702.74768   2.54116E-21
    702.95343   2.55613E-21
    703.15918   2.78810E-21
    703.36499   3.10103E-21
    703.57074   3.40578E-21
    703.77649   3.79679E-21
    703.98224   4.03266E-21
    704.18799   3.86163E-21
    704.39368   3.91438E-21
    704.59943   4.01897E-21
    704.80518   4.27395E-21
    705.01086   4.76746E-21
    705.21661   5.31133E-21
    705.42230   6.04102E-21
    705.62799   5.52205E-21
    705.83368   4.90225E-21
    706.03943   4.30307E-21
    706.24512   4.13133E-21
    706.45074   4.35249E-21
    706.65643   4.56053E-21
    706.86212   5.06426E-21
    707.06781   6.35888E-21
    707.27350   6.66494E-21
    707.47913   5.98186E-21
    707.68481   6.44455E-21
    707.89044   5.38521E-21
    708.09607   3.71483E-21
    708.30176   3.27722E-21
    708.50739   3.03577E-21
    708.71301   2.91361E-21
    708.91870   3.01501E-21
    709.12433   3.20007E-21
    709.32996   3.48663E-21
    709.53558   3.53927E-21
    709.74121   3.46860E-21
    709.94678   3.59682E-21
    710.15240   3.79220E-21
    710.35803   4.43153E-21
    710.56366   4.93097E-21
    710.76923   5.81714E-21
    710.97485   4.54609E-21
    711.18042   3.88593E-21
    711.38605   3.78792E-21
    711.59161   3.94695E-21
    711.79724   4.42767E-21
    712.00281   4.41705E-21
    712.20844   4.47945E-21
    712.41400   4.14307E-21
    712.61957   3.76469E-21
    712.82513   3.81529E-21
    713.03076   3.61472E-21
    713.23633   3.90362E-21
    713.44189   4.43295E-21
    713.64746   4.29517E-21
    713.85303   3.70007E-21
    714.05859   3.14810E-21
    714.26416   2.99810E-21
    714.46973   3.30060E-21
    714.67529   3.35025E-21
    714.88086   3.04342E-21
    715.08643   2.51042E-21
    715.29199   2.13916E-21
    715.49756   2.03844E-21
    715.70313   1.83852E-21
    715.90863   1.87211E-21
    716.11420   2.04173E-21
    716.31976   2.06978E-21
    716.52533   1.90664E-21
    716.73090   1.79789E-21
    716.93640   1.68644E-21
    717.14197   1.59934E-21
    717.34753   1.55439E-21
    717.55310   1.56554E-21
    717.75861   1.57786E-21
    717.96417   1.55329E-21
    718.16974   1.53096E-21
    718.37531   1.42824E-21
    718.58081   1.42928E-21
    718.78638   1.58448E-21
    718.99194   1.33143E-21
    719.19751   1.19815E-21
    719.40302   1.19426E-21
    719.60858   1.12083E-21
    719.81415   1.23909E-21
    720.01971   1.36095E-21
    720.22522   1.52210E-21
    720.43079   1.53363E-21
    720.63635   1.59480E-21
    720.84192   1.61039E-21
    721.04742   1.45484E-21
    721.25299   1.54428E-21
    721.45856   1.67366E-21
    721.66412   1.83004E-21
    721.86969   1.89756E-21
    722.07526   1.89680E-21
    722.28082   1.82866E-21
    722.48639   1.82172E-21
    722.69196   1.81796E-21
    722.89752   1.77914E-21
    723.10309   2.02803E-21
    723.30865   2.12238E-21
    723.51422   1.98869E-21
    723.71979   1.71228E-21
    723.92535   1.71657E-21
    724.13092   1.74410E-21
    724.33649   1.55645E-21
    724.54205   1.46791E-21
    724.74762   1.36229E-21
    724.95325   1.22135E-21
    725.15881   1.12076E-21
    725.36438   1.08163E-21
    725.57001   9.92478E-22
    725.77557   9.50415E-22
    725.98120   9.00393E-22
    726.18677   8.38505E-22
    726.39233   8.68006E-22
    726.59796   8.80357E-22
    726.80359   8.42687E-22
    727.00916   7.98208E-22
    727.21478   7.88061E-22
    727.42041   8.13102E-22
    727.62598   7.85616E-22
    727.83160   8.16257E-22
    728.03723   8.78130E-22
    728.24286   8.46238E-22
    728.44849   8.01879E-22
    728.65411   8.03892E-22
    728.85974   7.62657E-22
    729.06537   7.12381E-22
    729.27106   7.18743E-22
    729.47668   7.46905E-22
    729.68231   7.36551E-22
    729.88794   7.77682E-22
    730.09363   7.39102E-22
    730.29926   7.19729E-22
    730.50494   7.48768E-22
    730.71063   7.20252E-22
    730.91626   7.40298E-22
    731.12195   7.72932E-22
    731.32764   7.78040E-22
    731.53333   7.62961E-22
    731.73901   8.04140E-22
    731.94470   8.64051E-22
    732.15039   8.41264E-22
    732.35608   7.95208E-22
    732.56177   7.34058E-22
    732.76746   6.98845E-22
    732.97321   7.84308E-22
    733.17889   8.29329E-22
    733.38464   8.77986E-22
    733.59033   9.79483E-22
    733.79608   1.04072E-21
    734.00183   1.09693E-21
    734.20752   1.23241E-21
    734.41327   1.35446E-21
    734.61902   1.32867E-21
    734.82483   1.44360E-21
    735.03058   1.45550E-21
    735.23633   1.33175E-21
    735.44208   1.27630E-21
    735.64789   1.28506E-21
    735.85364   1.25000E-21
    736.05945   1.16984E-21
    736.26520   1.07987E-21
    736.47101   1.08766E-21
    736.67682   1.14080E-21
    736.88263   1.22446E-21
    737.08844   1.24984E-21
    737.29425   1.17716E-21
    737.50006   1.09165E-21
    737.70587   9.99650E-22
    737.91174   1.01205E-21
    738.11755   1.06495E-21
    738.32343   1.18438E-21
    738.52930   1.32592E-21
    738.73511   1.45503E-21
    738.94098   1.48798E-21
    739.14685   1.35246E-21
    739.35272   1.15465E-21
    739.55865   1.12120E-21
    739.76453   1.13610E-21
    739.97040   1.23942E-21
    740.17633   1.41105E-21
    740.38220   1.28080E-21
    740.58813   1.23774E-21
    740.79407   1.23963E-21
    741.00000   1.12395E-21
    741.20593   1.01052E-21
    741.41187   9.68275E-22
    741.61780   9.57896E-22
    741.82379   9.19731E-22
    742.02972   9.39694E-22
    742.23572   1.05648E-21
    742.44165   1.14236E-21
    742.64764   1.27088E-21
    742.85364   1.37703E-21
    743.05963   1.47588E-21
    743.26563   1.52631E-21
    743.47168   1.64335E-21
    743.67767   1.72355E-21
    743.88373   1.81221E-21
    744.08972   1.96448E-21
    744.29578   2.02521E-21
    744.50183   2.32546E-21
    744.70789   2.68004E-21
    744.91394   2.83955E-21
    745.12000   2.87274E-21
    745.32611   2.95556E-21
    745.53217   2.87953E-21
    745.73828   2.96050E-21
    745.94440   3.52275E-21
    746.15051   3.26327E-21
    746.35663   3.48062E-21
    746.56274   3.13159E-21
    746.76886   2.23023E-21
    746.97504   1.74782E-21
    747.18115   1.46487E-21
    747.38733   1.33977E-21
    747.59351   1.30725E-21
    747.79968   1.12396E-21
    748.00586   1.03021E-21
    748.21204   1.01101E-21
    748.41821   9.63767E-22
    748.62445   9.11041E-22
    748.83069   9.43858E-22
    749.03687   9.76853E-22
    749.24310   1.02488E-21
    749.44934   1.10305E-21
    749.65564   1.10432E-21
    749.86188   1.12263E-21
    750.06812   1.10323E-21
    750.27441   1.11143E-21
    750.48071   1.10610E-21
    750.68701   1.24495E-21
    750.89331   1.25931E-21
    751.09961   1.33306E-21
    751.30591   1.26557E-21
    751.51227   1.27654E-21
    751.71857   1.31493E-21
    751.92493   1.34807E-21
    752.13129   1.29104E-21
    752.33765   1.33840E-21
    752.54401   1.39804E-21
    752.75043   1.32197E-21
    752.95679   1.22559E-21
    753.16321   1.15852E-21
    753.36963   1.25730E-21
    753.57605   1.31523E-21
    753.78247   1.44634E-21
    753.98889   1.49930E-21
    754.19537   1.38520E-21
    754.40186   1.32734E-21
    754.60828   1.20136E-21
    754.81476   1.16570E-21
    755.02124   1.32403E-21
    755.22778   1.34261E-21
    755.43427   1.32996E-21
    755.64081   1.53809E-21
    755.84729   1.27733E-21
    756.05383   1.06488E-21
    756.26038   1.09425E-21
    756.46698   1.06026E-21
    756.67352   9.59298E-22
    756.88007   9.69321E-22
    757.08667   9.47600E-22
    757.29327   1.05061E-21
    757.49988   1.00414E-21
    757.70648   8.05601E-22
    757.91315   7.11768E-22
    758.11975   7.01016E-22
    758.32642   6.44099E-22
    758.53308   6.37878E-22
    758.73975   6.03391E-22
    758.94641   5.79548E-22
    759.15308   5.71888E-22
    759.35980   5.25563E-22
    759.56653   4.87364E-22
    759.77325   4.45968E-22
    759.97998   4.77339E-22
    760.18671   4.69216E-22
    760.39343   4.50266E-22
    760.60022   4.15762E-22
    760.80701   4.03384E-22
    761.01379   3.94828E-22
    761.22058   4.05832E-22
    761.42737   4.06515E-22
    761.63422   4.14463E-22
    761.84100   4.16327E-22
    762.04785   4.24014E-22
    762.25470   4.57060E-22
    762.46155   4.96761E-22
    762.66846   5.18504E-22
    762.87531   5.16921E-22
    763.08221   5.39668E-22
    763.28912   5.41998E-22
    763.49603   5.63239E-22
    763.70294   5.74301E-22
    763.90991   6.01741E-22
    764.11682   6.27890E-22
    764.32379   6.69345E-22
    764.53076   7.22471E-22
    764.73773   7.13481E-22
    764.94476   7.38150E-22
    765.15173   7.13957E-22
    765.35876   6.45056E-22
    765.56580   6.90807E-22
    765.77283   7.02734E-22
    765.97986   6.43047E-22
    766.18695   6.05379E-22
    766.39404   6.26860E-22
    766.60107   6.37503E-22
    766.80817   6.17108E-22
    767.01532   5.50305E-22
    767.22241   5.49950E-22
    767.42957   5.24310E-22
    767.63672   5.08308E-22
    767.84387   4.90109E-22
    768.05103   4.44913E-22
    768.25818   4.29117E-22
    768.46539   4.43439E-22
    768.67261   4.50418E-22
    768.87982   4.03818E-22
    769.08704   3.40453E-22
    769.29425   3.14694E-22
    769.50153   3.10057E-22
    769.70874   2.90164E-22
    769.91602   2.90867E-22
    770.12329   2.90571E-22
    770.33063   2.65831E-22
    770.53790   2.66525E-22
    770.74524   2.79522E-22
    770.95258   2.71179E-22
    771.15991   2.49121E-22
    771.36725   2.49222E-22
    771.57465   2.42604E-22
    771.78204   2.75194E-22
    771.98938   2.70088E-22
    772.19684   2.51284E-22
    772.40424   2.44618E-22
    772.61163   2.53346E-22
    772.81909   2.52528E-22
    773.02655   2.54523E-22
    773.23401   2.72956E-22
    773.44153   2.55542E-22
    773.64899   2.54633E-22
    773.85651   2.65918E-22
    774.06403   2.97618E-22
    774.27155   2.86085E-22
    774.47906   2.90184E-22
    774.68665   2.87124E-22
    774.89423   2.84026E-22
    775.10181   2.85769E-22
    775.30939   2.82894E-22
    775.51697   3.17127E-22
    775.72461   3.30119E-22
    775.93219   3.42018E-22
    776.13983   3.61855E-22
    776.34753   3.51126E-22
    776.55518   3.71794E-22
    776.76288   3.95156E-22
    776.97052   4.14221E-22
    777.17822   4.35865E-22
    777.38599   4.62711E-22
    777.59369   4.59746E-22
    777.80145   4.55857E-22
    778.00922   4.59588E-22
    778.21698   4.83535E-22
    778.42474   4.78106E-22
    778.63251   4.68508E-22
    778.84033   4.77439E-22
    779.04816   4.92370E-22
    779.25598   4.67558E-22
    779.46381   4.44983E-22
    779.67169   4.27420E-22
    779.87958   4.32916E-22
    780.08746   4.68532E-22
    780.29535   4.40341E-22
    780.50323   4.49818E-22
    780.71118   4.63100E-22
    780.91907   4.53585E-22
    781.12701   4.31276E-22
    781.33502   4.12615E-22
    781.54297   4.27644E-22
    781.75098   4.43849E-22
    781.95898   4.65696E-22
    782.16699   4.57339E-22
    782.37500   4.53049E-22
    782.58307   4.50989E-22
    782.79108   4.95006E-22
    782.99915   5.16836E-22
    783.20721   5.12946E-22
    783.41534   5.36628E-22
    783.62341   5.15313E-22
    783.83154   4.73683E-22
    784.03967   4.47163E-22
    784.24780   4.73368E-22
    784.45599   5.67688E-22
    784.66412   6.71725E-22
    784.87231   6.99449E-22
    785.08051   6.96120E-22
    785.28876   6.07481E-22
    785.49695   5.11338E-22
    785.70520   5.17571E-22
    785.91345   5.77654E-22
    786.12170   6.52292E-22
    786.33002   6.28302E-22
    786.53827   5.38622E-22
    786.74658   4.93425E-22
    786.95490   5.31516E-22
    787.16321   5.47320E-22
    787.37158   5.77336E-22
    787.57996   6.13564E-22
    787.78833   6.71145E-22
    787.99670   7.60979E-22
    788.20508   8.80173E-22
    788.41351   8.85321E-22
    788.62195   8.83514E-22
    788.83038   9.33556E-22
    789.03882   9.86574E-22
    789.24725   9.60334E-22
    789.45575   9.62442E-22
    789.66425   1.14327E-21
    789.87274   1.28139E-21
    790.08124   1.39266E-21
    790.28979   1.17207E-21
    790.49835   1.01310E-21
    790.70691   1.00393E-21
    790.91547   1.03518E-21
    791.12402   7.94964E-22
    791.33264   6.74989E-22
    791.54126   6.86934E-22
    791.74988   6.76076E-22
    791.95850   7.28240E-22
    792.16718   6.99044E-22
    792.37585   6.29423E-22
    792.58453   5.95686E-22
    792.79321   4.92344E-22
    793.00189   4.42848E-22
    793.21063   4.55623E-22
    793.41937   5.12046E-22
    793.62811   4.94076E-22
    793.83685   4.29712E-22
    794.04565   3.83306E-22
