# retrieved from http://www.atsr.rl.ac.uk/documentation/docs/filterfunctions/atsr-2/v16/index.shtml
# ATSR-2 Flight Model FPA 1.6um
#
# Wavelength Normalised
# (um) Response
1385.100000 0.00000
1386.655000 0.00000
1388.211000 0
1389.766000 0.00010
1391.321000 0.00000
1392.877000 0.00000
1394.432000 0
1395.987000 0.00009
1397.543000 0.00000
1399.098000 0.00000
1400.653000 0.00000
1402.209000 0.00009
1403.764000 0.00008
1405.319000 0
1406.875000 0.00008
1408.430000 0
1409.985000 0.00000
1411.541000 0.00008
1413.096000 0.00000
1414.651000 0.00007
1416.206000 0
1417.762000 0
1419.317000 0.00007
1420.872000 0.00007
1422.428000 0.00007
1423.983000 0.00014
1425.538000 0.00000
1427.094000 0
1428.649000 0.00007
1430.204000 0.00007
1431.760000 0.00013
1433.315000 0.00013
1434.870000 0.00006
1436.426000 0.00012
1437.981000 0.00032
1439.536000 0.00013
1441.092000 0.00012
1442.647000 0.00012
1444.202000 0.00012
1445.758000 0.00005
1447.313000 0.00029
1448.868000 0.00030
1450.424000 0.00012
1451.979000 0.00028
1453.534000 0.00031
1455.090000 0.00012
1456.645000 0.00027
1458.200000 0.00029
1459.756000 0.00028
1461.311000 0.00046
1462.866000 0.00028
1464.422000 0.00046
1465.977000 0.00012
1467.532000 0.00041
1469.087000 0.00059
1470.643000 0.00079
1472.198000 0.00047
1473.753000 0.00059
1475.309000 0.00062
1476.864000 0.00060
1478.419000 0.00076
1479.975000 0.00078
1481.530000 0.00076
1483.085000 0.00080
1484.641000 0.00075
1486.196000 0.00073
1487.751000 0.00087
1489.307000 0.00095
1490.862000 0.00094
1492.417000 0.00113
1493.973000 0.00116
1495.528000 0.00114
1497.083000 0.00114
1498.639000 0.00120
1500.194000 0.00151
1501.749000 0.00172
1503.305000 0.00184
1504.860000 0.00194
1506.415000 0.00205
1507.971000 0.00252
1509.526000 0.00265
1511.081000 0.00258
1512.637000 0.00299
1514.192000 0.00330
1515.747000 0.00372
1517.303000 0.00387
1518.858000 0.00388
1520.413000 0.00460
1521.968000 0.00520
1523.524000 0.00592
1525.079000 0.00670
1526.634000 0.00733
1528.190000 0.00827
1529.745000 0.00942
1531.300000 0.01062
1532.856000 0.01206
1534.411000 0.01394
1535.966000 0.01579
1537.522000 0.01823
1539.077000 0.02095
1540.632000 0.02445
1542.188000 0.02878
1543.743000 0.03345
1545.298000 0.03918
1546.854000 0.04571
1548.409000 0.05336
1549.964000 0.06274
1551.520000 0.07206
1553.075000 0.08293
1554.630000 0.09451
1556.186000 0.10956
1557.741000 0.12578
1559.296000 0.14609
1560.852000 0.16720
1562.407000 0.18956
1563.962000 0.21506
1565.518000 0.24403
1567.073000 0.27768
1568.628000 0.31707
1570.184000 0.35398
1571.739000 0.40135
1573.294000 0.44837
1574.849000 0.50454
1576.405000 0.56052
1577.960000 0.62060
1579.515000 0.66956
1581.071000 0.76486
1582.626000 0.80717
1584.181000 0.86262
1585.737000 0.90923
1587.292000 0.93489
1588.847000 0.96278
1590.403000 0.98417
1591.958000 1.00038
1593.513000 0.99489
1595.069000 0.99416
1596.624000 0.97623
1598.179000 0.97045
1599.735000 0.95848
1601.290000 0.93731
1602.845000 0.91777
1604.401000 0.90254
1605.956000 0.88354
1607.511000 0.87317
1609.067000 0.86440
1610.622000 0.84973
1612.177000 0.83827
1613.733000 0.81431
1615.288000 0.80445
1616.843000 0.78288
1618.399000 0.77682
1619.954000 0.76536
1621.509000 0.75125
1623.065000 0.74400
1624.620000 0.72927
1626.175000 0.71804
1627.730000 0.70467
1629.286000 0.68463
1630.841000 0.66609
1632.396000 0.65362
1633.952000 0.63655
1635.507000 0.61842
1637.062000 0.59012
1638.618000 0.56053
1640.173000 0.52987
1641.728000 0.49754
1643.284000 0.46079
1644.839000 0.42778
1646.394000 0.39594
1647.950000 0.36112
1649.505000 0.33132
1651.060000 0.30068
1652.616000 0.27323
1654.171000 0.24574
1655.726000 0.22404
1657.282000 0.20170
1658.837000 0.17969
1660.392000 0.16170
1661.948000 0.14268
1663.503000 0.12884
1665.058000 0.11408
1666.614000 0.10226
1668.169000 0.09141
1669.724000 0.08081
1671.280000 0.07208
1672.835000 0.06359
1674.390000 0.05652
1675.946000 0.05089
1677.501000 0.04497
1679.056000 0.04038
1680.611000 0.03588
1682.167000 0.03245
1683.722000 0.02887
1685.277000 0.02597
1686.833000 0.02318
1688.388000 0.02104
1689.943000 0.01900
1691.499000 0.01703
1693.054000 0.01527
1694.609000 0.01380
1696.165000 0.01254
1697.720000 0.01139
1699.275000 0.01015
1700.831000 0.00947
1702.386000 0.00869
1703.941000 0.00815
1705.497000 0.00730
1707.052000 0.00680
1708.607000 0.00603
1710.163000 0.00588
1711.718000 0.00551
1713.273000 0.00466
1714.829000 0.00450
1716.384000 0.00446
1717.939000 0.00411
1719.495000 0.00351
1721.050000 0.00325
1722.605000 0.00307
1724.161000 0.00307
1725.716000 0.00255
1727.271000 0.00239
1728.827000 0.00220
1730.382000 0.00185
1731.937000 0.00198
1733.492000 0.00186
1735.048000 0.00150
1736.603000 0.00138
1738.158000 0.00139
1739.714000 0.00141
1741.269000 0.00135
1742.824000 0.00128
1744.380000 0.00115
1745.935000 0.00122
1747.490000 0.00116
1749.046000 0.00116
1750.601000 0.00116
1752.156000 0.00103
1753.712000 0.00101
1755.267000 0.00097
1756.822000 0.00103
1758.378000 0.00097
1759.933000 0.00091
1761.488000 0.00090
1763.044000 0.00091
1764.599000 0.00091
1766.154000 0.00091
1767.710000 0.00072
1769.265000 0.00093
1770.820000 0.00033
1772.376000 0.00072
1773.931000 0.00073
1775.486000 0.00073
1777.042000 0.00013
1778.597000 0.00074
